N,EMG_0,EMG_1,EMG_2,EMG_3,EMG_4,EMG_5,EMG_6,EMG_7,Acc_X,Acc_Y,Acc_Z,Gyro_X,Gyro_Y,Gyro_Z,VBAT
1,182815.0,112063.0,-59346.0,205601.0,310663.0,594642.0,211248.0,294489.0,-322.0,277.0,16739.0,-389.0,-116.0,-140.0,3649.0
2,182338.0,112510.0,-59057.0,205723.0,311173.0,594643.0,211258.0,294358.0,-322.0,277.0,16739.0,-389.0,-116.0,-140.0,3649.0
3,181573.0,112387.0,-58774.0,205684.0,311364.0,594736.0,211711.0,295074.0,-322.0,277.0,16739.0,-389.0,-116.0,-140.0,3649.0
4,181823.0,112778.0,-58429.0,205150.0,310547.0,594134.0,211730.0,295348.0,-322.0,277.0,16739.0,-389.0,-116.0,-140.0,3649.0
5,182952.0,113125.0,-58468.0,206721.0,310961.0,593730.0,211322.0,295794.0,-322.0,277.0,16739.0,-389.0,-116.0,-140.0,3649.0
6,182937.0,113533.0,-58406.0,206954.0,310988.0,593916.0,211057.0,296128.0,-322.0,277.0,16739.0,-389.0,-116.0,-140.0,3649.0
7,182100.0,113495.0,-58510.0,206591.0,311224.0,594466.0,211155.0,295091.0,-322.0,277.0,16739.0,-389.0,-116.0,-140.0,3649.0
8,182411.0,113717.0,-58413.0,206924.0,311131.0,594274.0,211199.0,294146.0,-322.0,277.0,16739.0,-389.0,-116.0,-140.0,3649.0
9,183314.0,113202.0,-59132.0,206293.0,310709.0,593860.0,211122.0,294203.0,-322.0,277.0,16739.0,-389.0,-116.0,-140.0,3649.0
10,183652.0,113217.0,-59147.0,206674.0,311145.0,594118.0,211105.0,294263.0,-322.0,277.0,16739.0,-389.0,-116.0,-140.0,3649.0
11,182459.0,112879.0,-59325.0,206793.0,311848.0,594448.0,210906.0,294424.0,-232.0,447.0,16764.0,-313.0,-96.0,144.0,3649.0
12,180334.0,112308.0,-59429.0,206049.0,311174.0,594531.0,211382.0,294883.0,-232.0,447.0,16764.0,-313.0,-96.0,144.0,3649.0
13,181466.0,112771.0,-59122.0,206229.0,310833.0,594410.0,211571.0,294979.0,-232.0,447.0,16764.0,-313.0,-96.0,144.0,3649.0
14,182375.0,113509.0,-59029.0,206304.0,310644.0,593928.0,210841.0,294624.0,-232.0,447.0,16764.0,-313.0,-96.0,144.0,3649.0
15,181343.0,113594.0,-58854.0,206489.0,310888.0,594093.0,210806.0,294105.0,-232.0,447.0,16764.0,-313.0,-96.0,144.0,3649.0
16,181138.0,113706.0,-58392.0,207128.0,311449.0,594581.0,211125.0,294246.0,-232.0,447.0,16764.0,-313.0,-96.0,144.0,3649.0
17,181868.0,113388.0,-58871.0,206611.0,310905.0,593984.0,211114.0,295370.0,-232.0,447.0,16764.0,-313.0,-96.0,144.0,3649.0
18,182420.0,113679.0,-58814.0,206643.0,310996.0,594144.0,211408.0,296258.0,-232.0,447.0,16764.0,-313.0,-96.0,144.0,3649.0
19,182076.0,113824.0,-58623.0,206877.0,311361.0,594603.0,211434.0,295626.0,-232.0,447.0,16764.0,-313.0,-96.0,144.0,3649.0
20,181685.0,113524.0,-58896.0,206625.0,311168.0,594440.0,211515.0,295463.0,-232.0,447.0,16764.0,-313.0,-96.0,144.0,3649.0
21,181049.0,113119.0,-59116.0,206453.0,311030.0,594321.0,211538.0,294937.0,-130.0,647.0,16663.0,-534.0,59.0,306.0,3649.0
22,180392.0,113146.0,-59115.0,206402.0,310866.0,594031.0,211172.0,294254.0,-130.0,647.0,16663.0,-534.0,59.0,306.0,3649.0
23,180383.0,114039.0,-58116.0,207405.0,311771.0,594794.0,211075.0,294489.0,-130.0,647.0,16663.0,-534.0,59.0,306.0,3649.0
24,180903.0,114529.0,-57552.0,208061.0,312413.0,595346.0,210861.0,295091.0,-130.0,647.0,16663.0,-534.0,59.0,306.0,3649.0
25,180627.0,113854.0,-58282.0,207322.0,311756.0,594740.0,210429.0,294790.0,-130.0,647.0,16663.0,-534.0,59.0,306.0,3649.0
26,180346.0,113176.0,-59174.0,206359.0,310916.0,594076.0,210276.0,295244.0,-130.0,647.0,16663.0,-534.0,59.0,306.0,3649.0
27,180316.0,112610.0,-60046.0,205411.0,310186.0,593556.0,210804.0,296504.0,-130.0,647.0,16663.0,-534.0,59.0,306.0,3649.0
28,180238.0,112604.0,-60127.0,205329.0,310288.0,593832.0,210991.0,296180.0,-130.0,647.0,16663.0,-534.0,59.0,306.0,3649.0
29,179969.0,112939.0,-59382.0,206243.0,311221.0,594782.0,211162.0,295378.0,-130.0,647.0,16663.0,-534.0,59.0,306.0,3649.0
30,179659.0,113388.0,-58863.0,206644.0,311413.0,594774.0,211478.0,294769.0,-130.0,647.0,16663.0,-534.0,59.0,306.0,3649.0
31,179540.0,113654.0,-58754.0,206687.0,311483.0,594831.0,212066.0,295313.0,-162.0,537.0,16471.0,-479.0,-177.0,443.0,3649.0
32,179013.0,113368.0,-59024.0,206407.0,311181.0,594465.0,211946.0,295120.0,-162.0,537.0,16471.0,-479.0,-177.0,443.0,3649.0
33,178501.0,113855.0,-58211.0,207289.0,311972.0,595101.0,211776.0,293912.0,-162.0,537.0,16471.0,-479.0,-177.0,443.0,3649.0
34,178753.0,113854.0,-58320.0,207203.0,311994.0,595135.0,211443.0,294322.0,-162.0,537.0,16471.0,-479.0,-177.0,443.0,3649.0
35,179427.0,113842.0,-58741.0,206660.0,311536.0,594718.0,210604.0,295574.0,-162.0,537.0,16471.0,-479.0,-177.0,443.0,3649.0
36,179834.0,113387.0,-59373.0,206139.0,311320.0,594726.0,210496.0,295706.0,-162.0,537.0,16471.0,-479.0,-177.0,443.0,3649.0
37,180183.0,112838.0,-59814.0,205823.0,311117.0,594608.0,210634.0,296109.0,-162.0,537.0,16471.0,-479.0,-177.0,443.0,3649.0
38,180645.0,113178.0,-59588.0,205848.0,310922.0,594220.0,210628.0,296295.0,-162.0,537.0,16471.0,-479.0,-177.0,443.0,3649.0
39,180951.0,113814.0,-58846.0,206573.0,311564.0,594778.0,210483.0,295607.0,-162.0,537.0,16471.0,-479.0,-177.0,443.0,3649.0
40,180943.0,113711.0,-58917.0,206583.0,311779.0,595148.0,211006.0,295116.0,-162.0,537.0,16471.0,-479.0,-177.0,443.0,3649.0
41,180623.0,113298.0,-59221.0,206439.0,311829.0,595301.0,210791.0,294306.0,-219.0,310.0,16754.0,-639.0,-1226.0,345.0,3649.0
42,180644.0,113688.0,-58879.0,206749.0,312136.0,595562.0,210506.0,294058.0,-219.0,310.0,16754.0,-639.0,-1226.0,345.0,3649.0
43,181106.0,114851.0,-58081.0,207241.0,312361.0,595638.0,210667.0,295119.0,-219.0,310.0,16754.0,-639.0,-1226.0,345.0,3649.0
44,181069.0,114694.0,-58492.0,206743.0,311932.0,595351.0,210858.0,294970.0,-219.0,310.0,16754.0,-639.0,-1226.0,345.0,3649.0
45,180403.0,113406.0,-59317.0,206227.0,311683.0,595349.0,210916.0,293449.0,-219.0,310.0,16754.0,-639.0,-1226.0,345.0,3649.0
46,179430.0,112653.0,-59728.0,206025.0,311577.0,595240.0,211164.0,292764.0,-219.0,310.0,16754.0,-639.0,-1226.0,345.0,3649.0
47,179867.0,112838.0,-59727.0,206128.0,311466.0,594948.0,210638.0,293335.0,-219.0,310.0,16754.0,-639.0,-1226.0,345.0,3649.0
48,181156.0,113620.0,-59177.0,206484.0,311714.0,595110.0,210199.0,294999.0,-219.0,310.0,16754.0,-639.0,-1226.0,345.0,3649.0
49,181735.0,113606.0,-59507.0,205930.0,311525.0,595045.0,210035.0,294795.0,-219.0,310.0,16754.0,-639.0,-1226.0,345.0,3649.0
50,181916.0,113127.0,-60069.0,205512.0,311020.0,594448.0,210192.0,294663.0,-219.0,310.0,16754.0,-639.0,-1226.0,345.0,3649.0
51,182042.0,112353.0,-60584.0,205202.0,310836.0,594395.0,210875.0,295031.0,36.0,-102.0,16580.0,-178.0,333.0,12.0,3649.0
52,181875.0,112508.0,-60343.0,205483.0,311109.0,594712.0,210621.0,294021.0,36.0,-102.0,16580.0,-178.0,333.0,12.0,3649.0
53,182007.0,112985.0,-60115.0,205373.0,311239.0,594828.0,210803.0,294334.0,36.0,-102.0,16580.0,-178.0,333.0,12.0,3649.0
54,181878.0,112830.0,-60274.0,205426.0,311291.0,594867.0,210695.0,294436.0,36.0,-102.0,16580.0,-178.0,333.0,12.0,3649.0
55,182392.0,113219.0,-59779.0,206008.0,311653.0,595213.0,210618.0,294733.0,36.0,-102.0,16580.0,-178.0,333.0,12.0,3649.0
56,182960.0,113333.0,-59774.0,205875.0,311476.0,595011.0,210293.0,294584.0,36.0,-102.0,16580.0,-178.0,333.0,12.0,3649.0
57,183139.0,113288.0,-59756.0,205956.0,311561.0,595111.0,210246.0,293726.0,36.0,-102.0,16580.0,-178.0,333.0,12.0,3649.0
58,183611.0,113830.0,-59152.0,206648.0,312256.0,595771.0,210461.0,293931.0,36.0,-102.0,16580.0,-178.0,333.0,12.0,3649.0
59,183699.0,113442.0,-59592.0,206214.0,311914.0,595465.0,210467.0,294043.0,36.0,-102.0,16580.0,-178.0,333.0,12.0,3649.0
60,183579.0,112949.0,-60081.0,205565.0,311394.0,594962.0,210221.0,293939.0,36.0,-102.0,16580.0,-178.0,333.0,12.0,3649.0
61,183801.0,112993.0,-60018.0,205150.0,311347.0,594899.0,210082.0,293644.0,40.0,235.0,16138.0,-907.0,1618.0,-14.0,3649.0
62,184104.0,113343.0,-59919.0,205651.0,311879.0,595315.0,210236.0,293159.0,40.0,235.0,16138.0,-907.0,1618.0,-14.0,3649.0
63,184278.0,113857.0,-59535.0,206418.0,311974.0,595418.0,210436.0,293349.0,40.0,235.0,16138.0,-907.0,1618.0,-14.0,3649.0
64,184136.0,113686.0,-59604.0,206262.0,311623.0,595149.0,210124.0,293349.0,40.0,235.0,16138.0,-907.0,1618.0,-14.0,3649.0
65,183859.0,113406.0,-59714.0,206277.0,311962.0,595418.0,210067.0,293109.0,40.0,235.0,16138.0,-907.0,1618.0,-14.0,3649.0
66,183945.0,113611.0,-59573.0,206338.0,311951.0,595326.0,209911.0,292967.0,40.0,235.0,16138.0,-907.0,1618.0,-14.0,3649.0
67,184149.0,113741.0,-59421.0,206529.0,312122.0,595520.0,209886.0,292925.0,40.0,235.0,16138.0,-907.0,1618.0,-14.0,3649.0
68,184133.0,113829.0,-59466.0,206426.0,312054.0,595483.0,209830.0,292929.0,40.0,235.0,16138.0,-907.0,1618.0,-14.0,3649.0
69,184361.0,113462.0,-59856.0,206061.0,311727.0,595121.0,209649.0,293677.0,40.0,235.0,16138.0,-907.0,1618.0,-14.0,3649.0
70,184928.0,113302.0,-60129.0,205819.0,311488.0,594864.0,209440.0,293956.0,40.0,235.0,16138.0,-907.0,1618.0,-14.0,3649.0
71,184476.0,113523.0,-59795.0,206245.0,311941.0,595353.0,209642.0,293369.0,-525.0,434.0,16387.0,-1621.0,276.0,-344.0,3649.0
72,183861.0,113969.0,-59265.0,206806.0,312514.0,595961.0,210127.0,292880.0,-525.0,434.0,16387.0,-1621.0,276.0,-344.0,3649.0
73,183921.0,114413.0,-58891.0,207160.0,312829.0,596209.0,210154.0,293484.0,-525.0,434.0,16387.0,-1621.0,276.0,-344.0,3649.0
74,183936.0,114894.0,-58677.0,207258.0,312881.0,596224.0,209946.0,293288.0,-525.0,434.0,16387.0,-1621.0,276.0,-344.0,3649.0
75,183138.0,114978.0,-58357.0,207664.0,313363.0,596737.0,209814.0,291665.0,-525.0,434.0,16387.0,-1621.0,276.0,-344.0,3649.0
76,182812.0,114346.0,-58869.0,207140.0,312934.0,596410.0,209705.0,291797.0,-525.0,434.0,16387.0,-1621.0,276.0,-344.0,3649.0
77,183466.0,113729.0,-59714.0,206220.0,312019.0,595524.0,209704.0,293511.0,-525.0,434.0,16387.0,-1621.0,276.0,-344.0,3649.0
78,183621.0,113019.0,-60481.0,205591.0,311443.0,595002.0,209851.0,294951.0,-525.0,434.0,16387.0,-1621.0,276.0,-344.0,3649.0
79,183552.0,112709.0,-60457.0,206061.0,311554.0,595121.0,210102.0,295026.0,-525.0,434.0,16387.0,-1621.0,276.0,-344.0,3649.0
80,183696.0,113241.0,-60057.0,206493.0,311733.0,595311.0,209929.0,293977.0,-525.0,434.0,16387.0,-1621.0,276.0,-344.0,3649.0
81,184546.0,114263.0,-59783.0,205664.0,311827.0,595458.0,209907.0,294339.0,-520.0,44.0,16716.0,-846.0,376.0,-497.0,3649.0
82,184576.0,114181.0,-59867.0,205869.0,311898.0,595404.0,209757.0,294011.0,-520.0,44.0,16716.0,-846.0,376.0,-497.0,3649.0
83,184169.0,114309.0,-59649.0,206206.0,312061.0,595593.0,210033.0,293896.0,-520.0,44.0,16716.0,-846.0,376.0,-497.0,3649.0
84,183372.0,113969.0,-59851.0,206165.0,311945.0,595475.0,209837.0,293638.0,-520.0,44.0,16716.0,-846.0,376.0,-497.0,3649.0
85,183114.0,113720.0,-59882.0,206203.0,312011.0,595584.0,209998.0,293574.0,-520.0,44.0,16716.0,-846.0,376.0,-497.0,3649.0
86,183363.0,113648.0,-59716.0,206069.0,312162.0,595874.0,210139.0,294022.0,-520.0,44.0,16716.0,-846.0,376.0,-497.0,3649.0
87,183516.0,113643.0,-59718.0,206303.0,312354.0,595926.0,210049.0,294237.0,-520.0,44.0,16716.0,-846.0,376.0,-497.0,3649.0
88,184403.0,114879.0,-59407.0,206381.0,312171.0,595634.0,209741.0,293809.0,-520.0,44.0,16716.0,-846.0,376.0,-497.0,3649.0
89,183738.0,114757.0,-59306.0,206524.0,312313.0,595781.0,209683.0,293418.0,-520.0,44.0,16716.0,-846.0,376.0,-497.0,3649.0
90,182944.0,114014.0,-59721.0,206121.0,312068.0,595668.0,209594.0,293706.0,-520.0,44.0,16716.0,-846.0,376.0,-497.0,3649.0
91,184168.0,114266.0,-59736.0,206032.0,312019.0,595715.0,209532.0,293780.0,-268.0,56.0,16747.0,-602.0,759.0,-411.0,3649.0
92,185412.0,114951.0,-59631.0,206046.0,311948.0,595637.0,209474.0,293349.0,-268.0,56.0,16747.0,-602.0,759.0,-411.0,3649.0
93,185061.0,114610.0,-59615.0,206196.0,312116.0,595821.0,209642.0,293378.0,-268.0,56.0,16747.0,-602.0,759.0,-411.0,3649.0
94,183981.0,114495.0,-59912.0,205769.0,311647.0,595293.0,209198.0,293399.0,-268.0,56.0,16747.0,-602.0,759.0,-411.0,3649.0
95,183123.0,115262.0,-59226.0,206454.0,312284.0,595880.0,209284.0,292684.0,-268.0,56.0,16747.0,-602.0,759.0,-411.0,3649.0
96,182901.0,114884.0,-59546.0,206104.0,312006.0,595655.0,209168.0,292263.0,-268.0,56.0,16747.0,-602.0,759.0,-411.0,3649.0
97,183538.0,114258.0,-59779.0,205871.0,311850.0,595578.0,209210.0,293368.0,-268.0,56.0,16747.0,-602.0,759.0,-411.0,3649.0
98,184691.0,114556.0,-59779.0,205859.0,311805.0,595484.0,208955.0,293361.0,-268.0,56.0,16747.0,-602.0,759.0,-411.0,3649.0
99,184785.0,114606.0,-59805.0,205890.0,311931.0,595736.0,209393.0,293222.0,-268.0,56.0,16747.0,-602.0,759.0,-411.0,3649.0
100,184784.0,114218.0,-60168.0,205572.0,311682.0,595551.0,209445.0,293666.0,-268.0,56.0,16747.0,-602.0,759.0,-411.0,3649.0
101,184566.0,113983.0,-60306.0,205540.0,311722.0,595609.0,209799.0,294656.0,-185.0,123.0,16675.0,-632.0,793.0,-644.0,3649.0
102,184391.0,114099.0,-60434.0,205366.0,311506.0,595429.0,209853.0,294768.0,-185.0,123.0,16675.0,-632.0,793.0,-644.0,3649.0
103,184251.0,114808.0,-59897.0,205793.0,311734.0,595659.0,209809.0,294307.0,-185.0,123.0,16675.0,-632.0,793.0,-644.0,3649.0
104,183691.0,114974.0,-59457.0,206340.0,312149.0,596163.0,209661.0,293372.0,-185.0,123.0,16675.0,-632.0,793.0,-644.0,3649.0
105,183894.0,114777.0,-59515.0,206326.0,312222.0,596178.0,209466.0,293628.0,-185.0,123.0,16675.0,-632.0,793.0,-644.0,3649.0
106,184203.0,114955.0,-59481.0,206291.0,312191.0,596040.0,209426.0,294442.0,-185.0,123.0,16675.0,-632.0,793.0,-644.0,3649.0
107,184340.0,114766.0,-59693.0,206138.0,312066.0,596012.0,209389.0,294228.0,-185.0,123.0,16675.0,-632.0,793.0,-644.0,3649.0
108,184394.0,114255.0,-60073.0,205944.0,311989.0,596062.0,209534.0,293948.0,-185.0,123.0,16675.0,-632.0,793.0,-644.0,3649.0
109,184738.0,114231.0,-60293.0,205682.0,311679.0,595709.0,209431.0,294563.0,-185.0,123.0,16675.0,-632.0,793.0,-644.0,3649.0
110,184852.0,114392.0,-60262.0,205642.0,311591.0,595612.0,209136.0,294459.0,-185.0,123.0,16675.0,-632.0,793.0,-644.0,3649.0
111,184755.0,114181.0,-60519.0,205382.0,311397.0,595458.0,208923.0,294023.0,-157.0,250.0,16608.0,-420.0,675.0,-608.0,3649.0
112,184691.0,114391.0,-60306.0,205581.0,311567.0,595625.0,209003.0,293418.0,-157.0,250.0,16608.0,-420.0,675.0,-608.0,3649.0
113,184467.0,114711.0,-59892.0,206013.0,311941.0,596009.0,209278.0,293484.0,-157.0,250.0,16608.0,-420.0,675.0,-608.0,3649.0
114,184184.0,114746.0,-59871.0,206032.0,311926.0,595978.0,209239.0,293774.0,-157.0,250.0,16608.0,-420.0,675.0,-608.0,3649.0
115,184019.0,114960.0,-59697.0,206218.0,312063.0,596082.0,209316.0,293706.0,-157.0,250.0,16608.0,-420.0,675.0,-608.0,3649.0
116,184184.0,114982.0,-59638.0,206336.0,312193.0,596214.0,209396.0,293749.0,-157.0,250.0,16608.0,-420.0,675.0,-608.0,3649.0
117,184452.0,115075.0,-59577.0,206443.0,312394.0,596495.0,209284.0,293476.0,-157.0,250.0,16608.0,-420.0,675.0,-608.0,3649.0
118,184593.0,114785.0,-59970.0,206088.0,312079.0,596175.0,208796.0,293284.0,-157.0,250.0,16608.0,-420.0,675.0,-608.0,3649.0
119,184944.0,115172.0,-59462.0,206664.0,312668.0,596776.0,208558.0,293503.0,-157.0,250.0,16608.0,-420.0,675.0,-608.0,3649.0
120,184998.0,114709.0,-59733.0,206438.0,312529.0,596714.0,208505.0,293978.0,-157.0,250.0,16608.0,-420.0,675.0,-608.0,3649.0
121,184966.0,114764.0,-60111.0,205936.0,311978.0,596124.0,208124.0,293789.0,-214.0,229.0,16649.0,-412.0,346.0,-547.0,3649.0
122,184798.0,114879.0,-60119.0,205829.0,311822.0,595953.0,208333.0,293651.0,-214.0,229.0,16649.0,-412.0,346.0,-547.0,3649.0
123,184484.0,114742.0,-60084.0,205914.0,311929.0,596115.0,209306.0,294207.0,-214.0,229.0,16649.0,-412.0,346.0,-547.0,3649.0
124,184745.0,114673.0,-60274.0,205724.0,311759.0,596023.0,209201.0,294196.0,-214.0,229.0,16649.0,-412.0,346.0,-547.0,3649.0
125,185376.0,115261.0,-59686.0,206313.0,312321.0,596561.0,208984.0,294014.0,-214.0,229.0,16649.0,-412.0,346.0,-547.0,3649.0
126,185653.0,115259.0,-59895.0,206019.0,312019.0,596267.0,208826.0,293989.0,-214.0,229.0,16649.0,-412.0,346.0,-547.0,3649.0
127,185318.0,115133.0,-60087.0,205854.0,311811.0,596033.0,208941.0,293906.0,-214.0,229.0,16649.0,-412.0,346.0,-547.0,3649.0
128,184673.0,115139.0,-59811.0,206291.0,312241.0,596436.0,209231.0,293469.0,-214.0,229.0,16649.0,-412.0,346.0,-547.0,3649.0
129,185075.0,114789.0,-60079.0,206148.0,312205.0,596523.0,209381.0,294616.0,-214.0,229.0,16649.0,-412.0,346.0,-547.0,3649.0
130,185332.0,114414.0,-60286.0,206066.0,312086.0,596423.0,208853.0,294170.0,-214.0,229.0,16649.0,-412.0,346.0,-547.0,3649.0
131,185770.0,115336.0,-59711.0,206599.0,312479.0,596778.0,208718.0,293830.0,-114.0,120.0,16681.0,-312.0,280.0,-456.0,3649.0
132,185954.0,115426.0,-59830.0,206241.0,312347.0,596830.0,208899.0,294406.0,-114.0,120.0,16681.0,-312.0,280.0,-456.0,3649.0
133,185834.0,115218.0,-60002.0,205913.0,312211.0,596709.0,209108.0,294888.0,-114.0,120.0,16681.0,-312.0,280.0,-456.0,3649.0
134,185841.0,115406.0,-59657.0,206536.0,312643.0,597009.0,209180.0,294133.0,-114.0,120.0,16681.0,-312.0,280.0,-456.0,3649.0
135,186001.0,115401.0,-59638.0,206542.0,312699.0,597134.0,209154.0,294363.0,-114.0,120.0,16681.0,-312.0,280.0,-456.0,3649.0
136,185798.0,115074.0,-59938.0,205845.0,312247.0,596733.0,208885.0,293967.0,-114.0,120.0,16681.0,-312.0,280.0,-456.0,3649.0
137,185577.0,114649.0,-60259.0,205279.0,312061.0,596576.0,208833.0,293601.0,-114.0,120.0,16681.0,-312.0,280.0,-456.0,3649.0
138,185271.0,114317.0,-60808.0,205196.0,311876.0,596202.0,208702.0,293614.0,-114.0,120.0,16681.0,-312.0,280.0,-456.0,3649.0
139,185645.0,114433.0,-60530.0,205326.0,311824.0,596088.0,208667.0,294112.0,-114.0,120.0,16681.0,-312.0,280.0,-456.0,3649.0
140,186334.0,114932.0,-59812.0,205562.0,311999.0,596436.0,208738.0,294213.0,-114.0,120.0,16681.0,-312.0,280.0,-456.0,3649.0
141,186398.0,115165.0,-60242.0,205839.0,311693.0,596433.0,208658.0,293971.0,-109.0,190.0,16597.0,-364.0,398.0,-250.0,3649.0
142,186939.0,115126.0,-60816.0,205788.0,311567.0,595981.0,208690.0,294234.0,-109.0,190.0,16597.0,-364.0,398.0,-250.0,3649.0
143,187184.0,115892.0,-59737.0,206374.0,312632.0,596446.0,208842.0,294461.0,-109.0,190.0,16597.0,-364.0,398.0,-250.0,3649.0
144,186469.0,115394.0,-59864.0,206198.0,312674.0,596796.0,208780.0,294234.0,-109.0,190.0,16597.0,-364.0,398.0,-250.0,3649.0
145,186893.0,115388.0,-60026.0,206054.0,312324.0,596711.0,208406.0,293623.0,-109.0,190.0,16597.0,-364.0,398.0,-250.0,3649.0
146,187274.0,115899.0,-59808.0,206546.0,312638.0,595926.0,208294.0,293651.0,-109.0,190.0,16597.0,-364.0,398.0,-250.0,3649.0
147,187111.0,115831.0,-59814.0,206329.0,311851.0,593635.0,208402.0,294248.0,-109.0,190.0,16597.0,-364.0,398.0,-250.0,3649.0
148,187918.0,116375.0,-59166.0,206769.0,310200.0,590686.0,208766.0,294621.0,-109.0,190.0,16597.0,-364.0,398.0,-250.0,3649.0
149,188284.0,116813.0,-58263.0,206168.0,309763.0,591218.0,208856.0,294338.0,-109.0,190.0,16597.0,-364.0,398.0,-250.0,3649.0
150,187653.0,116444.0,-58856.0,202154.0,310196.0,595839.0,208871.0,294461.0,-109.0,190.0,16597.0,-364.0,398.0,-250.0,3649.0
151,187573.0,115472.0,-61037.0,200897.0,311793.0,599577.0,209026.0,294606.0,-343.0,329.0,16605.0,-875.0,-171.0,27.0,3649.0
152,187177.0,115607.0,-59570.0,203751.0,312084.0,598424.0,208568.0,293781.0,-343.0,329.0,16605.0,-875.0,-171.0,27.0,3649.0
153,187393.0,116244.0,-59125.0,203143.0,312376.0,598095.0,208939.0,294056.0,-343.0,329.0,16605.0,-875.0,-171.0,27.0,3649.0
154,186989.0,115576.0,-60404.0,204562.0,312929.0,597989.0,208593.0,294228.0,-343.0,329.0,16605.0,-875.0,-171.0,27.0,3649.0
155,186615.0,116202.0,-59173.0,206406.0,312901.0,596575.0,208676.0,294606.0,-343.0,329.0,16605.0,-875.0,-171.0,27.0,3649.0
156,186628.0,116263.0,-59037.0,207084.0,312366.0,596084.0,208892.0,294404.0,-343.0,329.0,16605.0,-875.0,-171.0,27.0,3649.0
157,187256.0,115564.0,-59748.0,206334.0,311905.0,597734.0,208846.0,294473.0,-343.0,329.0,16605.0,-875.0,-171.0,27.0,3649.0
158,187626.0,115920.0,-59497.0,206163.0,312586.0,598512.0,208226.0,294116.0,-343.0,329.0,16605.0,-875.0,-171.0,27.0,3649.0
159,187729.0,116488.0,-59694.0,206569.0,312718.0,598091.0,207779.0,293033.0,-343.0,329.0,16605.0,-875.0,-171.0,27.0,3649.0
160,187272.0,116879.0,-59381.0,206989.0,312939.0,598186.0,207884.0,292349.0,-343.0,329.0,16605.0,-875.0,-171.0,27.0,3649.0
161,186813.0,116566.0,-59314.0,206949.0,312904.0,598486.0,208330.0,292478.0,-346.0,263.0,16658.0,-826.0,-342.0,502.0,3649.0
162,187671.0,116838.0,-59067.0,207150.0,312948.0,598494.0,208688.0,294136.0,-346.0,263.0,16658.0,-826.0,-342.0,502.0,3649.0
163,187904.0,117264.0,-58731.0,207484.0,313154.0,598456.0,208849.0,294968.0,-346.0,263.0,16658.0,-826.0,-342.0,502.0,3649.0
164,187604.0,117038.0,-58986.0,207298.0,313099.0,598392.0,208898.0,294853.0,-346.0,263.0,16658.0,-826.0,-342.0,502.0,3649.0
165,187394.0,116947.0,-58857.0,207412.0,313281.0,598688.0,208737.0,294583.0,-346.0,263.0,16658.0,-826.0,-342.0,502.0,3649.0
166,187021.0,117052.0,-58695.0,207521.0,313279.0,598676.0,208489.0,293669.0,-346.0,263.0,16658.0,-826.0,-342.0,502.0,3649.0
167,186886.0,117455.0,-58419.0,207664.0,313313.0,598643.0,208616.0,293227.0,-346.0,263.0,16658.0,-826.0,-342.0,502.0,3649.0
168,186934.0,117497.0,-58398.0,207680.0,313306.0,598578.0,208483.0,293407.0,-346.0,263.0,16658.0,-826.0,-342.0,502.0,3649.0
169,186935.0,117036.0,-58832.0,207308.0,313056.0,598414.0,208116.0,293992.0,-346.0,263.0,16658.0,-826.0,-342.0,502.0,3649.0
170,186699.0,116883.0,-59296.0,206696.0,312454.0,597931.0,208373.0,294349.0,-346.0,263.0,16658.0,-826.0,-342.0,502.0,3649.0
171,186375.0,116930.0,-59214.0,206735.0,312461.0,597966.0,208796.0,294494.0,-365.0,210.0,16875.0,14.0,-475.0,255.0,3649.0
172,186431.0,116358.0,-59660.0,206393.0,312226.0,597793.0,209006.0,295696.0,-365.0,210.0,16875.0,14.0,-475.0,255.0,3649.0
173,186219.0,116013.0,-60066.0,206059.0,312043.0,597732.0,209223.0,295873.0,-365.0,210.0,16875.0,14.0,-475.0,255.0,3649.0
174,186266.0,116171.0,-59852.0,206192.0,312078.0,597705.0,209142.0,295317.0,-365.0,210.0,16875.0,14.0,-475.0,255.0,3649.0
175,186891.0,117312.0,-58872.0,206881.0,312388.0,597787.0,209171.0,294791.0,-365.0,210.0,16875.0,14.0,-475.0,255.0,3649.0
176,188535.0,119376.0,-57166.0,208166.0,313037.0,597908.0,207906.0,295338.0,-365.0,210.0,16875.0,14.0,-475.0,255.0,3649.0
177,189251.0,119908.0,-56489.0,208929.0,313626.0,598216.0,206886.0,295546.0,-365.0,210.0,16875.0,14.0,-475.0,255.0,3649.0
178,189499.0,120185.0,-55881.0,209884.0,314914.0,599774.0,206716.0,295338.0,-365.0,210.0,16875.0,14.0,-475.0,255.0,3649.0
179,189163.0,119708.0,-56142.0,209806.0,315206.0,600379.0,206414.0,294354.0,-365.0,210.0,16875.0,14.0,-475.0,255.0,3649.0
180,187017.0,116863.0,-58737.0,207391.0,313253.0,598838.0,208488.0,292956.0,-365.0,210.0,16875.0,14.0,-475.0,255.0,3649.0
181,186126.0,115762.0,-60041.0,206108.0,312261.0,598345.0,209604.0,292798.0,-184.0,124.0,16708.0,604.0,-579.0,300.0,3649.0
182,186886.0,115237.0,-60969.0,205161.0,311381.0,597538.0,209335.0,295491.0,-184.0,124.0,16708.0,604.0,-579.0,300.0,3649.0
183,187484.0,115457.0,-60972.0,205074.0,311239.0,597299.0,209507.0,296621.0,-184.0,124.0,16708.0,604.0,-579.0,300.0,3649.0
184,187119.0,115504.0,-60781.0,205290.0,311397.0,597406.0,209163.0,295488.0,-184.0,124.0,16708.0,604.0,-579.0,300.0,3649.0
185,187282.0,116350.0,-59927.0,206065.0,312009.0,597878.0,208945.0,295184.0,-184.0,124.0,16708.0,604.0,-579.0,300.0,3649.0
186,187653.0,117269.0,-59172.0,206656.0,312579.0,598364.0,208864.0,294518.0,-184.0,124.0,16708.0,604.0,-579.0,300.0,3649.0
187,187888.0,118782.0,-58142.0,207169.0,312786.0,598357.0,208831.0,293582.0,-184.0,124.0,16708.0,604.0,-579.0,300.0,3649.0
188,188192.0,119355.0,-57557.0,207593.0,313014.0,598408.0,209073.0,292828.0,-184.0,124.0,16708.0,604.0,-579.0,300.0,3649.0
189,189276.0,119354.0,-57299.0,208184.0,313831.0,599306.0,208784.0,293516.0,-184.0,124.0,16708.0,604.0,-579.0,300.0,3649.0
190,190543.0,118736.0,-57664.0,208256.0,314063.0,599462.0,207430.0,296139.0,-184.0,124.0,16708.0,604.0,-579.0,300.0,3649.0
191,190814.0,117599.0,-58995.0,207040.0,312979.0,598424.0,207091.0,297012.0,-77.0,204.0,16642.0,78.0,-1511.0,609.0,3649.0
192,190569.0,117543.0,-59481.0,206331.0,312366.0,598051.0,207401.0,295800.0,-77.0,204.0,16642.0,78.0,-1511.0,609.0,3649.0
193,190289.0,117598.0,-59501.0,206266.0,312336.0,598148.0,207800.0,295340.0,-77.0,204.0,16642.0,78.0,-1511.0,609.0,3649.0
194,189279.0,116285.0,-60366.0,205666.0,311904.0,597824.0,208500.0,294839.0,-77.0,204.0,16642.0,78.0,-1511.0,609.0,3649.0
195,189244.0,116584.0,-59980.0,206049.0,312203.0,598149.0,208807.0,294147.0,-77.0,204.0,16642.0,78.0,-1511.0,609.0,3649.0
196,189828.0,117561.0,-59205.0,206586.0,312471.0,598308.0,208937.0,293716.0,-77.0,204.0,16642.0,78.0,-1511.0,609.0,3649.0
197,190088.0,118410.0,-58302.0,207563.0,313517.0,599329.0,209548.0,293671.0,-77.0,204.0,16642.0,78.0,-1511.0,609.0,3649.0
198,189964.0,117600.0,-59032.0,206933.0,312930.0,598729.0,210093.0,294200.0,-77.0,204.0,16642.0,78.0,-1511.0,609.0,3649.0
199,190498.0,117893.0,-58826.0,207006.0,312698.0,598107.0,208518.0,294160.0,-77.0,204.0,16642.0,78.0,-1511.0,609.0,3649.0
200,191344.0,118860.0,-57888.0,208000.0,313596.0,598912.0,208698.0,294103.0,-77.0,204.0,16642.0,78.0,-1511.0,609.0,3649.0
201,191981.0,118974.0,-57762.0,208286.0,314057.0,599537.0,209215.0,294689.0,-284.0,-313.0,16528.0,-492.0,-593.0,-790.0,3649.0
202,192739.0,119457.0,-57436.0,208476.0,314171.0,599576.0,208546.0,294718.0,-284.0,-313.0,16528.0,-492.0,-593.0,-790.0,3649.0
203,192535.0,118331.0,-58641.0,207323.0,313247.0,598962.0,208649.0,294104.0,-284.0,-313.0,16528.0,-492.0,-593.0,-790.0,3649.0
204,192482.0,117664.0,-59549.0,206416.0,312421.0,598174.0,207205.0,293246.0,-284.0,-313.0,16528.0,-492.0,-593.0,-790.0,3649.0
205,192824.0,117855.0,-59376.0,206624.0,312716.0,598521.0,207366.0,292877.0,-284.0,-313.0,16528.0,-492.0,-593.0,-790.0,3649.0
206,192953.0,117460.0,-59671.0,206420.0,312564.0,598409.0,207659.0,293733.0,-284.0,-313.0,16528.0,-492.0,-593.0,-790.0,3649.0
207,192633.0,116648.0,-60287.0,206003.0,312198.0,598039.0,207964.0,294349.0,-284.0,-313.0,16528.0,-492.0,-593.0,-790.0,3649.0
208,193216.0,117049.0,-59967.0,206385.0,312628.0,598474.0,208262.0,293057.0,-284.0,-313.0,16528.0,-492.0,-593.0,-790.0,3649.0
209,194009.0,117314.0,-59852.0,206464.0,312693.0,598459.0,208039.0,292763.0,-284.0,-313.0,16528.0,-492.0,-593.0,-790.0,3649.0
210,194494.0,117063.0,-60169.0,206136.0,312311.0,597831.0,207817.0,293161.0,-284.0,-313.0,16528.0,-492.0,-593.0,-790.0,3649.0
211,195356.0,117324.0,-60024.0,206291.0,312536.0,597842.0,207937.0,293892.0,-89.0,-283.0,16284.0,-1194.0,1259.0,-116.0,3649.0
212,196013.0,117836.0,-59611.0,206708.0,312853.0,598066.0,208003.0,294083.0,-89.0,-283.0,16284.0,-1194.0,1259.0,-116.0,3649.0
213,196333.0,118389.0,-59054.0,207370.0,313571.0,598709.0,208246.0,293855.0,-89.0,-283.0,16284.0,-1194.0,1259.0,-116.0,3649.0
214,196284.0,118236.0,-59275.0,207218.0,313689.0,598524.0,207939.0,293401.0,-89.0,-283.0,16284.0,-1194.0,1259.0,-116.0,3649.0
215,196258.0,118194.0,-59355.0,207183.0,313821.0,598551.0,207964.0,293305.0,-89.0,-283.0,16284.0,-1194.0,1259.0,-116.0,3649.0
216,196376.0,117996.0,-59445.0,207241.0,314140.0,598328.0,208029.0,293564.0,-89.0,-283.0,16284.0,-1194.0,1259.0,-116.0,3649.0
217,196807.0,118359.0,-59129.0,207586.0,314328.0,598413.0,207975.0,293814.0,-89.0,-283.0,16284.0,-1194.0,1259.0,-116.0,3649.0
218,197224.0,118836.0,-58857.0,207786.0,314303.0,598578.0,208248.0,294054.0,-89.0,-283.0,16284.0,-1194.0,1259.0,-116.0,3649.0
219,197284.0,119006.0,-58892.0,207684.0,314015.0,598439.0,208235.0,293938.0,-89.0,-283.0,16284.0,-1194.0,1259.0,-116.0,3649.0
220,197454.0,119153.0,-58899.0,207612.0,313812.0,598246.0,207902.0,293878.0,-89.0,-283.0,16284.0,-1194.0,1259.0,-116.0,3649.0
221,197468.0,119209.0,-58834.0,207823.0,314190.0,598641.0,207703.0,293744.0,-580.0,215.0,16227.0,-1662.0,1030.0,-726.0,3649.0
222,197144.0,118601.0,-58917.0,208161.0,314764.0,599173.0,207946.0,293768.0,-580.0,215.0,16227.0,-1662.0,1030.0,-726.0,3649.0
223,197224.0,118963.0,-58825.0,208081.0,314378.0,598924.0,208129.0,293877.0,-580.0,215.0,16227.0,-1662.0,1030.0,-726.0,3649.0
224,196939.0,119074.0,-58731.0,208142.0,313963.0,598969.0,207908.0,293594.0,-580.0,215.0,16227.0,-1662.0,1030.0,-726.0,3649.0
225,196804.0,119129.0,-58681.0,208295.0,314068.0,599092.0,207846.0,292986.0,-580.0,215.0,16227.0,-1662.0,1030.0,-726.0,3649.0
226,197172.0,119407.0,-58425.0,208650.0,314511.0,599645.0,208225.0,293292.0,-580.0,215.0,16227.0,-1662.0,1030.0,-726.0,3649.0
227,197566.0,119143.0,-58719.0,208383.0,314146.0,599468.0,208254.0,294263.0,-580.0,215.0,16227.0,-1662.0,1030.0,-726.0,3649.0
228,197943.0,118899.0,-59009.0,208159.0,313796.0,599252.0,208151.0,294334.0,-580.0,215.0,16227.0,-1662.0,1030.0,-726.0,3649.0
229,198494.0,118800.0,-59229.0,207972.0,313480.0,598989.0,208109.0,294516.0,-580.0,215.0,16227.0,-1662.0,1030.0,-726.0,3649.0
230,198798.0,118977.0,-59200.0,207993.0,313398.0,598996.0,208178.0,294899.0,-580.0,215.0,16227.0,-1662.0,1030.0,-726.0,3649.0
231,199032.0,119180.0,-58991.0,208264.0,313469.0,598968.0,207846.0,295076.0,-814.0,295.0,16320.0,-2133.0,919.0,84.0,3649.0
232,199094.0,119314.0,-58741.0,208683.0,313622.0,598919.0,207313.0,294271.0,-814.0,295.0,16320.0,-2133.0,919.0,84.0,3649.0
233,198879.0,119829.0,-58332.0,209054.0,314123.0,599272.0,207744.0,293848.0,-814.0,295.0,16320.0,-2133.0,919.0,84.0,3649.0
234,198492.0,119468.0,-58579.0,208616.0,314149.0,599234.0,207944.0,293851.0,-814.0,295.0,16320.0,-2133.0,919.0,84.0,3649.0
235,198905.0,119364.0,-58698.0,208743.0,313753.0,599399.0,208361.0,294809.0,-814.0,295.0,16320.0,-2133.0,919.0,84.0,3649.0
236,199071.0,119118.0,-59111.0,208379.0,313182.0,599018.0,208018.0,294901.0,-814.0,295.0,16320.0,-2133.0,919.0,84.0,3649.0
237,199321.0,119302.0,-59004.0,208516.0,313409.0,598934.0,207861.0,294981.0,-814.0,295.0,16320.0,-2133.0,919.0,84.0,3649.0
238,199527.0,119533.0,-58831.0,208753.0,313683.0,599213.0,207819.0,294663.0,-814.0,295.0,16320.0,-2133.0,919.0,84.0,3649.0
239,200018.0,119833.0,-58621.0,209006.0,313791.0,599449.0,207832.0,294501.0,-814.0,295.0,16320.0,-2133.0,919.0,84.0,3649.0
240,200521.0,119706.0,-58624.0,209123.0,313863.0,599389.0,207862.0,294586.0,-814.0,295.0,16320.0,-2133.0,919.0,84.0,3649.0
241,200933.0,120008.0,-58497.0,209178.0,313740.0,598959.0,207798.0,294668.0,-557.0,74.0,16689.0,-1029.0,659.0,-363.0,3649.0
242,201238.0,120363.0,-58364.0,209292.0,313623.0,598990.0,207977.0,294733.0,-557.0,74.0,16689.0,-1029.0,659.0,-363.0,3649.0
243,201284.0,120116.0,-58473.0,209459.0,313928.0,599633.0,208004.0,294548.0,-557.0,74.0,16689.0,-1029.0,659.0,-363.0,3649.0
244,201206.0,120025.0,-58509.0,209583.0,314083.0,599725.0,207709.0,293996.0,-557.0,74.0,16689.0,-1029.0,659.0,-363.0,3649.0
245,201203.0,120356.0,-58209.0,209956.0,314356.0,599928.0,207499.0,293373.0,-557.0,74.0,16689.0,-1029.0,659.0,-363.0,3649.0
246,201492.0,120030.0,-58556.0,209583.0,313869.0,599336.0,207326.0,293689.0,-557.0,74.0,16689.0,-1029.0,659.0,-363.0,3649.0
247,202212.0,119847.0,-58851.0,209343.0,313661.0,598718.0,207592.0,294762.0,-557.0,74.0,16689.0,-1029.0,659.0,-363.0,3649.0
248,202497.0,119842.0,-58929.0,209363.0,313522.0,598386.0,207223.0,294874.0,-557.0,74.0,16689.0,-1029.0,659.0,-363.0,3649.0
249,202817.0,120106.0,-58713.0,209612.0,313318.0,598584.0,207014.0,294718.0,-557.0,74.0,16689.0,-1029.0,659.0,-363.0,3649.0
250,203058.0,120164.0,-58703.0,209421.0,313283.0,599119.0,207313.0,293833.0,-557.0,74.0,16689.0,-1029.0,659.0,-363.0,3649.0
251,203496.0,120563.0,-58254.0,209628.0,314297.0,599868.0,207539.0,293399.0,-169.0,-235.0,17025.0,-205.0,380.0,-703.0,3649.0
252,203904.0,120321.0,-58850.0,209458.0,313919.0,599580.0,207238.0,293616.0,-169.0,-235.0,17025.0,-205.0,380.0,-703.0,3649.0
253,203945.0,120578.0,-58660.0,210084.0,313880.0,599482.0,207494.0,293806.0,-169.0,-235.0,17025.0,-205.0,380.0,-703.0,3649.0
254,203841.0,120603.0,-58354.0,210464.0,313819.0,598703.0,207703.0,294278.0,-169.0,-235.0,17025.0,-205.0,380.0,-703.0,3649.0
255,204235.0,120516.0,-58544.0,210334.0,313035.0,597978.0,207963.0,295402.0,-169.0,-235.0,17025.0,-205.0,380.0,-703.0,3649.0
256,204929.0,120789.0,-58482.0,210344.0,312506.0,597723.0,207801.0,295607.0,-169.0,-235.0,17025.0,-205.0,380.0,-703.0,3649.0
257,205168.0,120884.0,-58559.0,210473.0,313420.0,598874.0,207323.0,295001.0,-169.0,-235.0,17025.0,-205.0,380.0,-703.0,3649.0
258,205298.0,120477.0,-58976.0,210010.0,313189.0,599779.0,206961.0,294668.0,-169.0,-235.0,17025.0,-205.0,380.0,-703.0,3649.0
259,205416.0,120378.0,-59024.0,210019.0,313590.0,599861.0,206769.0,294463.0,-169.0,-235.0,17025.0,-205.0,380.0,-703.0,3649.0
260,205598.0,121119.0,-58256.0,210358.0,313964.0,599717.0,206640.0,293589.0,-169.0,-235.0,17025.0,-205.0,380.0,-703.0,3649.0
261,205631.0,121237.0,-58001.0,210408.0,314023.0,599949.0,206662.0,292632.0,336.0,-180.0,16855.0,636.0,583.0,-792.0,3649.0
262,205700.0,120918.0,-58577.0,211253.0,314003.0,599858.0,206785.0,293158.0,336.0,-180.0,16855.0,636.0,583.0,-792.0,3649.0
263,205980.0,121229.0,-58306.0,211584.0,314155.0,600093.0,207285.0,294586.0,336.0,-180.0,16855.0,636.0,583.0,-792.0,3649.0
264,206435.0,121089.0,-58636.0,210347.0,313712.0,599735.0,207356.0,295378.0,336.0,-180.0,16855.0,636.0,583.0,-792.0,3649.0
265,206773.0,120635.0,-59403.0,210136.0,313161.0,599046.0,206967.0,295670.0,336.0,-180.0,16855.0,636.0,583.0,-792.0,3649.0
266,206814.0,120513.0,-59546.0,210583.0,313105.0,598953.0,206869.0,295647.0,336.0,-180.0,16855.0,636.0,583.0,-792.0,3649.0
267,207149.0,121266.0,-58732.0,210875.0,313361.0,599410.0,207362.0,296113.0,336.0,-180.0,16855.0,636.0,583.0,-792.0,3649.0
268,207376.0,121354.0,-58606.0,210814.0,313491.0,599408.0,207143.0,295828.0,336.0,-180.0,16855.0,636.0,583.0,-792.0,3649.0
269,207884.0,121682.0,-58344.0,210918.0,313758.0,599382.0,206961.0,295363.0,336.0,-180.0,16855.0,636.0,583.0,-792.0,3649.0
270,208122.0,121716.0,-58584.0,211442.0,314009.0,598985.0,206974.0,295348.0,336.0,-180.0,16855.0,636.0,583.0,-792.0,3649.0
271,208278.0,121786.0,-58526.0,211786.0,313617.0,598516.0,206778.0,295639.0,391.0,47.0,16655.0,38.0,685.0,-395.0,3649.0
272,208863.0,122451.0,-57862.0,212408.0,313281.0,599319.0,207026.0,295281.0,391.0,47.0,16655.0,38.0,685.0,-395.0,3649.0
273,208706.0,122167.0,-58042.0,212391.0,313866.0,600194.0,207105.0,294721.0,391.0,47.0,16655.0,38.0,685.0,-395.0,3649.0
274,208319.0,121790.0,-58339.0,212434.0,313930.0,599564.0,206892.0,294566.0,391.0,47.0,16655.0,38.0,685.0,-395.0,3649.0
275,208685.0,121841.0,-58412.0,212566.0,313483.0,599047.0,206753.0,294994.0,391.0,47.0,16655.0,38.0,685.0,-395.0,3649.0
276,209303.0,121934.0,-58581.0,212021.0,313099.0,599187.0,206689.0,295201.0,391.0,47.0,16655.0,38.0,685.0,-395.0,3649.0
277,209844.0,121739.0,-59034.0,211303.0,312792.0,599254.0,206581.0,295531.0,391.0,47.0,16655.0,38.0,685.0,-395.0,3649.0
278,210203.0,121544.0,-59339.0,211015.0,312553.0,599008.0,206444.0,295594.0,391.0,47.0,16655.0,38.0,685.0,-395.0,3649.0
279,210366.0,121867.0,-58697.0,212278.0,313385.0,599349.0,206486.0,294981.0,391.0,47.0,16655.0,38.0,685.0,-395.0,3649.0
280,210371.0,122534.0,-57997.0,213060.0,313966.0,599844.0,206572.0,293981.0,391.0,47.0,16655.0,38.0,685.0,-395.0,3649.0
281,210170.0,122477.0,-58058.0,212999.0,313861.0,599835.0,206161.0,293572.0,384.0,283.0,16508.0,-211.0,1017.0,74.0,3649.0
282,210508.0,122779.0,-57829.0,213214.0,314101.0,600345.0,206158.0,293598.0,384.0,283.0,16508.0,-211.0,1017.0,74.0,3649.0
283,211092.0,123101.0,-57695.0,213260.0,314136.0,600362.0,206476.0,293974.0,384.0,283.0,16508.0,-211.0,1017.0,74.0,3649.0
284,211656.0,122921.0,-57801.0,213016.0,313625.0,599659.0,206939.0,295989.0,384.0,283.0,16508.0,-211.0,1017.0,74.0,3649.0
285,211999.0,122493.0,-58100.0,212431.0,312843.0,599052.0,207243.0,297522.0,384.0,283.0,16508.0,-211.0,1017.0,74.0,3649.0
286,211878.0,121756.0,-59051.0,211736.0,312545.0,598877.0,206841.0,297269.0,384.0,283.0,16508.0,-211.0,1017.0,74.0,3649.0
287,212306.0,121991.0,-59452.0,211747.0,312840.0,599329.0,206849.0,297162.0,384.0,283.0,16508.0,-211.0,1017.0,74.0,3649.0
288,212529.0,122070.0,-59078.0,212373.0,312893.0,599294.0,206391.0,296510.0,384.0,283.0,16508.0,-211.0,1017.0,74.0,3649.0
289,212686.0,122680.0,-58065.0,211449.0,312919.0,599432.0,206197.0,296517.0,384.0,283.0,16508.0,-211.0,1017.0,74.0,3649.0
290,212539.0,122379.0,-58030.0,209737.0,312677.0,599384.0,205921.0,296760.0,384.0,283.0,16508.0,-211.0,1017.0,74.0,3649.0
291,212542.0,121653.0,-59549.0,211116.0,312526.0,599026.0,205725.0,296896.0,266.0,438.0,16421.0,-637.0,1067.0,535.0,3649.0
292,212525.0,122361.0,-58407.0,215422.0,313836.0,600063.0,206524.0,295800.0,266.0,438.0,16421.0,-637.0,1067.0,535.0,3649.0
293,212648.0,123310.0,-57295.0,215873.0,314389.0,600814.0,206968.0,294924.0,266.0,438.0,16421.0,-637.0,1067.0,535.0,3649.0
294,213288.0,123863.0,-57370.0,214527.0,313982.0,600369.0,206798.0,295688.0,266.0,438.0,16421.0,-637.0,1067.0,535.0,3649.0
295,213606.0,123289.0,-57954.0,214119.0,313424.0,599741.0,206634.0,296299.0,266.0,438.0,16421.0,-637.0,1067.0,535.0,3649.0
296,213659.0,123352.0,-57769.0,214416.0,313593.0,600063.0,206481.0,295620.0,266.0,438.0,16421.0,-637.0,1067.0,535.0,3649.0
297,213384.0,122951.0,-58232.0,214280.0,313526.0,600114.0,206113.0,294759.0,266.0,438.0,16421.0,-637.0,1067.0,535.0,3649.0
298,213746.0,122803.0,-58224.0,214610.0,313599.0,600098.0,206116.0,295609.0,266.0,438.0,16421.0,-637.0,1067.0,535.0,3649.0
299,214844.0,122736.0,-58537.0,214349.0,313278.0,599789.0,206330.0,297174.0,266.0,438.0,16421.0,-637.0,1067.0,535.0,3649.0
300,215682.0,123128.0,-58614.0,214261.0,313205.0,599446.0,206494.0,297985.0,266.0,438.0,16421.0,-637.0,1067.0,535.0,3649.0
301,216076.0,123373.0,-58507.0,214319.0,313201.0,599143.0,206168.0,297366.0,82.0,253.0,16545.0,-967.0,920.0,722.0,3649.0
302,216176.0,123231.0,-58552.0,214056.0,312545.0,599038.0,205842.0,296802.0,82.0,253.0,16545.0,-967.0,920.0,722.0,3649.0
303,216281.0,123298.0,-58284.0,214439.0,312879.0,599763.0,206257.0,297023.0,82.0,253.0,16545.0,-967.0,920.0,722.0,3649.0
304,216351.0,122952.0,-58519.0,215042.0,313049.0,599858.0,206382.0,297636.0,82.0,253.0,16545.0,-967.0,920.0,722.0,3649.0
305,216239.0,122984.0,-58344.0,215839.0,313161.0,599328.0,206223.0,297512.0,82.0,253.0,16545.0,-967.0,920.0,722.0,3649.0
306,215924.0,123333.0,-57662.0,215952.0,313271.0,599615.0,206588.0,297144.0,82.0,253.0,16545.0,-967.0,920.0,722.0,3649.0
307,215805.0,123427.0,-58266.0,213588.0,312983.0,599638.0,206674.0,297164.0,82.0,253.0,16545.0,-967.0,920.0,722.0,3649.0
308,216439.0,123256.0,-58171.0,212059.0,313213.0,599204.0,206503.0,296994.0,82.0,253.0,16545.0,-967.0,920.0,722.0,3649.0
309,217483.0,123656.0,-56897.0,209968.0,312274.0,599123.0,206499.0,296808.0,82.0,253.0,16545.0,-967.0,920.0,722.0,3649.0
310,216814.0,122547.0,-58735.0,212836.0,313259.0,600571.0,206349.0,296668.0,82.0,253.0,16545.0,-967.0,920.0,722.0,3649.0
311,215954.0,121714.0,-58151.0,217390.0,314223.0,601748.0,206381.0,296823.0,-86.0,112.0,16564.0,-994.0,729.0,929.0,3649.0
312,217347.0,123074.0,-56629.0,217819.0,314374.0,601667.0,206184.0,296673.0,-86.0,112.0,16564.0,-994.0,729.0,929.0,3649.0
313,218899.0,126036.0,-56575.0,217009.0,314193.0,601141.0,205679.0,296528.0,-86.0,112.0,16564.0,-994.0,729.0,929.0,3649.0
314,219173.0,126457.0,-56279.0,217153.0,313960.0,600654.0,205169.0,296570.0,-86.0,112.0,16564.0,-994.0,729.0,929.0,3649.0
315,218421.0,125731.0,-56564.0,216960.0,313797.0,600638.0,205684.0,295992.0,-86.0,112.0,16564.0,-994.0,729.0,929.0,3649.0
316,217924.0,124836.0,-56961.0,217188.0,314158.0,601133.0,206096.0,294706.0,-86.0,112.0,16564.0,-994.0,729.0,929.0,3649.0
317,218143.0,123416.0,-58353.0,216141.0,313310.0,600448.0,205938.0,295489.0,-86.0,112.0,16564.0,-994.0,729.0,929.0,3649.0
318,219435.0,123845.0,-58674.0,215732.0,312785.0,599913.0,205722.0,297043.0,-86.0,112.0,16564.0,-994.0,729.0,929.0,3649.0
319,219117.0,124046.0,-58289.0,216171.0,313098.0,600116.0,205496.0,297019.0,-86.0,112.0,16564.0,-994.0,729.0,929.0,3649.0
320,218705.0,123996.0,-58001.0,216533.0,313464.0,600455.0,205792.0,297166.0,-86.0,112.0,16564.0,-994.0,729.0,929.0,3649.0
321,219893.0,124294.0,-58181.0,216418.0,313386.0,600441.0,206164.0,297545.0,-384.0,95.0,16776.0,-1259.0,-410.0,898.0,3649.0
322,219963.0,124648.0,-58180.0,216241.0,313095.0,600228.0,206614.0,298034.0,-384.0,95.0,16776.0,-1259.0,-410.0,898.0,3649.0
323,218287.0,125134.0,-57189.0,217021.0,313590.0,600536.0,206428.0,297861.0,-384.0,95.0,16776.0,-1259.0,-410.0,898.0,3649.0
324,216566.0,125739.0,-56704.0,217430.0,313923.0,600734.0,205996.0,297277.0,-384.0,95.0,16776.0,-1259.0,-410.0,898.0,3649.0
325,215358.0,123942.0,-58580.0,216470.0,313416.0,600416.0,206288.0,297694.0,-384.0,95.0,16776.0,-1259.0,-410.0,898.0,3649.0
326,214386.0,123444.0,-58514.0,216469.0,313239.0,600201.0,206293.0,298062.0,-384.0,95.0,16776.0,-1259.0,-410.0,898.0,3649.0
327,214078.0,125345.0,-56897.0,217769.0,314162.0,600914.0,206133.0,296418.0,-384.0,95.0,16776.0,-1259.0,-410.0,898.0,3649.0
328,213446.0,125488.0,-56869.0,218153.0,314799.0,601725.0,206321.0,294835.0,-384.0,95.0,16776.0,-1259.0,-410.0,898.0,3649.0
329,212464.0,124488.0,-57882.0,217281.0,314059.0,601065.0,206348.0,296697.0,-384.0,95.0,16776.0,-1259.0,-410.0,898.0,3649.0
330,211978.0,124965.0,-57632.0,217391.0,313974.0,600872.0,206088.0,297266.0,-384.0,95.0,16776.0,-1259.0,-410.0,898.0,3649.0
331,211856.0,125092.0,-57481.0,217661.0,314216.0,601109.0,205933.0,296923.0,-408.0,98.0,16888.0,-871.0,-358.0,969.0,3649.0
332,211264.0,125076.0,-57419.0,217738.0,314234.0,601097.0,205846.0,297402.0,-408.0,98.0,16888.0,-871.0,-358.0,969.0,3649.0
333,210852.0,125371.0,-57399.0,217663.0,314097.0,601018.0,206472.0,298298.0,-408.0,98.0,16888.0,-871.0,-358.0,969.0,3649.0
334,209098.0,125245.0,-57354.0,217948.0,314362.0,601208.0,206643.0,297151.0,-408.0,98.0,16888.0,-871.0,-358.0,969.0,3649.0
335,207474.0,126171.0,-55975.0,219363.0,315566.0,602230.0,206496.0,295466.0,-408.0,98.0,16888.0,-871.0,-358.0,969.0,3649.0
336,207864.0,127202.0,-55255.0,220054.0,316226.0,602938.0,205810.0,295319.0,-408.0,98.0,16888.0,-871.0,-358.0,969.0,3649.0
337,208691.0,127337.0,-55871.0,219250.0,315293.0,601852.0,205035.0,296891.0,-408.0,98.0,16888.0,-871.0,-358.0,969.0,3649.0
338,209204.0,126186.0,-57907.0,217041.0,313118.0,599631.0,204816.0,298163.0,-408.0,98.0,16888.0,-871.0,-358.0,969.0,3649.0
339,208225.0,125104.0,-58577.0,216751.0,313146.0,599824.0,205650.0,297834.0,-408.0,98.0,16888.0,-871.0,-358.0,969.0,3649.0
340,206394.0,124611.0,-58547.0,217016.0,313581.0,600379.0,206727.0,296255.0,-408.0,98.0,16888.0,-871.0,-358.0,969.0,3649.0
341,205179.0,125026.0,-57969.0,217601.0,314067.0,600828.0,206642.0,295101.0,-358.0,-329.0,16861.0,-504.0,-447.0,344.0,3649.0
342,204451.0,125194.0,-56917.0,218914.0,315170.0,601804.0,206056.0,294115.0,-358.0,-329.0,16861.0,-504.0,-447.0,344.0,3649.0
343,204651.0,126486.0,-56109.0,219574.0,315569.0,602063.0,205946.0,294299.0,-358.0,-329.0,16861.0,-504.0,-447.0,344.0,3649.0
344,203477.0,126385.0,-56673.0,219156.0,315219.0,601780.0,206266.0,294598.0,-358.0,-329.0,16861.0,-504.0,-447.0,344.0,3649.0
345,202939.0,126281.0,-57011.0,218769.0,314872.0,601538.0,206758.0,295426.0,-358.0,-329.0,16861.0,-504.0,-447.0,344.0,3649.0
346,203004.0,126220.0,-57309.0,218417.0,314478.0,601173.0,206888.0,296028.0,-358.0,-329.0,16861.0,-504.0,-447.0,344.0,3649.0
347,201846.0,126005.0,-56876.0,219200.0,315371.0,602124.0,206713.0,294983.0,-358.0,-329.0,16861.0,-504.0,-447.0,344.0,3649.0
348,201842.0,125649.0,-56906.0,219376.0,315709.0,602633.0,206931.0,294432.0,-358.0,-329.0,16861.0,-504.0,-447.0,344.0,3649.0
349,203263.0,125599.0,-57716.0,218233.0,314371.0,601294.0,206134.0,294426.0,-358.0,-329.0,16861.0,-504.0,-447.0,344.0,3649.0
350,203691.0,126843.0,-56992.0,218795.0,314557.0,601275.0,205669.0,294813.0,-358.0,-329.0,16861.0,-504.0,-447.0,344.0,3649.0
351,203289.0,127294.0,-56359.0,219521.0,315228.0,601913.0,205630.0,294144.0,-402.0,-1326.0,17313.0,1243.0,-2019.0,-1754.0,3649.0
352,202228.0,127593.0,-55679.0,220356.0,316002.0,602664.0,205508.0,293719.0,-402.0,-1326.0,17313.0,1243.0,-2019.0,-1754.0,3649.0
353,201713.0,126958.0,-55904.0,220548.0,316303.0,602903.0,206625.0,295069.0,-402.0,-1326.0,17313.0,1243.0,-2019.0,-1754.0,3649.0
354,203344.0,126389.0,-57521.0,218701.0,314385.0,601019.0,207379.0,294781.0,-402.0,-1326.0,17313.0,1243.0,-2019.0,-1754.0,3649.0
355,203476.0,126811.0,-57343.0,218671.0,314131.0,600743.0,207038.0,293968.0,-402.0,-1326.0,17313.0,1243.0,-2019.0,-1754.0,3649.0
356,202962.0,126454.0,-57494.0,218663.0,314222.0,600978.0,206520.0,294188.0,-402.0,-1326.0,17313.0,1243.0,-2019.0,-1754.0,3649.0
357,203188.0,126785.0,-56952.0,219433.0,315132.0,601983.0,205740.0,293270.0,-402.0,-1326.0,17313.0,1243.0,-2019.0,-1754.0,3649.0
358,202923.0,127039.0,-56584.0,220005.0,315863.0,602810.0,205830.0,291526.0,-402.0,-1326.0,17313.0,1243.0,-2019.0,-1754.0,3649.0
359,201285.0,126669.0,-56259.0,220497.0,316298.0,603193.0,206292.0,291288.0,-402.0,-1326.0,17313.0,1243.0,-2019.0,-1754.0,3649.0
360,202403.0,125559.0,-57194.0,219484.0,315098.0,601881.0,206661.0,293651.0,-402.0,-1326.0,17313.0,1243.0,-2019.0,-1754.0,3649.0
361,206203.0,126091.0,-57648.0,218868.0,314359.0,601143.0,206132.0,294879.0,-126.0,-1161.0,17126.0,2453.0,-1172.0,-894.0,3649.0
362,207108.0,126591.0,-57597.0,218991.0,314516.0,601366.0,206023.0,294669.0,-126.0,-1161.0,17126.0,2453.0,-1172.0,-894.0,3649.0
363,206649.0,126932.0,-57315.0,219573.0,315214.0,602136.0,206462.0,293676.0,-126.0,-1161.0,17126.0,2453.0,-1172.0,-894.0,3649.0
364,206196.0,127496.0,-56119.0,220883.0,316312.0,603104.0,205655.0,291313.0,-126.0,-1161.0,17126.0,2453.0,-1172.0,-894.0,3649.0
365,206706.0,128105.0,-55250.0,221658.0,316759.0,603315.0,205291.0,292653.0,-126.0,-1161.0,17126.0,2453.0,-1172.0,-894.0,3649.0
366,206972.0,127019.0,-57062.0,219740.0,314701.0,601171.0,206338.0,296926.0,-126.0,-1161.0,17126.0,2453.0,-1172.0,-894.0,3649.0
367,208799.0,127267.0,-57557.0,219155.0,314060.0,600603.0,206369.0,296974.0,-126.0,-1161.0,17126.0,2453.0,-1172.0,-894.0,3649.0
368,210786.0,128312.0,-57088.0,219208.0,313919.0,600453.0,205697.0,296079.0,-126.0,-1161.0,17126.0,2453.0,-1172.0,-894.0,3649.0
369,210031.0,126071.0,-58391.0,218627.0,313851.0,600730.0,206819.0,296750.0,-126.0,-1161.0,17126.0,2453.0,-1172.0,-894.0,3649.0
370,208369.0,123860.0,-60464.0,216749.0,312023.0,599003.0,206913.0,296951.0,-126.0,-1161.0,17126.0,2453.0,-1172.0,-894.0,3649.0
371,206191.0,125373.0,-58858.0,218313.0,313421.0,600407.0,206578.0,294293.0,-558.0,-166.0,16642.0,2139.0,-883.0,-591.0,3649.0
372,205067.0,126781.0,-55952.0,221782.0,316946.0,603998.0,205688.0,289589.0,-558.0,-166.0,16642.0,2139.0,-883.0,-591.0,3649.0
373,207134.0,130131.0,-52984.0,224443.0,319125.0,605888.0,205045.0,287678.0,-558.0,-166.0,16642.0,2139.0,-883.0,-591.0,3649.0
374,210080.0,129694.0,-54842.0,222257.0,316804.0,603566.0,205854.0,293016.0,-558.0,-166.0,16642.0,2139.0,-883.0,-591.0,3649.0
375,212566.0,128311.0,-57573.0,219074.0,313479.0,600281.0,206528.0,298976.0,-558.0,-166.0,16642.0,2139.0,-883.0,-591.0,3649.0
376,212586.0,127347.0,-59504.0,216547.0,310665.0,597445.0,205740.0,299326.0,-558.0,-166.0,16642.0,2139.0,-883.0,-591.0,3649.0
377,212289.0,125285.0,-60279.0,216972.0,311650.0,598839.0,206055.0,298280.0,-558.0,-166.0,16642.0,2139.0,-883.0,-591.0,3649.0
378,212239.0,125607.0,-59336.0,218259.0,312769.0,599835.0,205854.0,298102.0,-558.0,-166.0,16642.0,2139.0,-883.0,-591.0,3649.0
379,212128.0,126348.0,-58657.0,218714.0,312988.0,599933.0,205608.0,298712.0,-558.0,-166.0,16642.0,2139.0,-883.0,-591.0,3649.0
380,210974.0,127666.0,-57459.0,219467.0,313838.0,600868.0,205632.0,296010.0,-558.0,-166.0,16642.0,2139.0,-883.0,-591.0,3649.0
381,210056.0,130723.0,-55316.0,221024.0,314858.0,601536.0,204379.0,290607.0,-711.0,352.0,16239.0,428.0,-203.0,503.0,3649.0
382,209981.0,129187.0,-55986.0,220981.0,315021.0,601772.0,204896.0,292570.0,-711.0,352.0,16239.0,428.0,-203.0,503.0,3649.0
383,209606.0,126779.0,-57506.0,220168.0,314506.0,601393.0,206655.0,298230.0,-711.0,352.0,16239.0,428.0,-203.0,503.0,3649.0
384,208525.0,128379.0,-54931.0,223169.0,317508.0,604469.0,207213.0,294441.0,-711.0,352.0,16239.0,428.0,-203.0,503.0,3649.0
385,207334.0,129458.0,-52302.0,226157.0,320311.0,607087.0,205492.0,287563.0,-711.0,352.0,16239.0,428.0,-203.0,503.0,3649.0
386,209000.0,128331.0,-53978.0,224626.0,318301.0,604981.0,204595.0,290278.0,-711.0,352.0,16239.0,428.0,-203.0,503.0,3649.0
387,212149.0,128044.0,-56916.0,220803.0,314204.0,600967.0,205469.0,295477.0,-711.0,352.0,16239.0,428.0,-203.0,503.0,3649.0
388,213806.0,127232.0,-59643.0,216747.0,311353.0,598644.0,206585.0,297788.0,-711.0,352.0,16239.0,428.0,-203.0,503.0,3649.0
389,214813.0,126268.0,-60501.0,216011.0,310882.0,598227.0,206973.0,302221.0,-711.0,352.0,16239.0,428.0,-203.0,503.0,3649.0
390,215081.0,126359.0,-59832.0,216586.0,311576.0,598826.0,206122.0,302579.0,-711.0,352.0,16239.0,428.0,-203.0,503.0,3649.0
391,214033.0,126055.0,-60029.0,216863.0,311899.0,599288.0,206071.0,300759.0,-543.0,511.0,16442.0,610.0,-460.0,879.0,3649.0
392,212387.0,125423.0,-59966.0,217698.0,312113.0,599238.0,206304.0,299210.0,-543.0,511.0,16442.0,610.0,-460.0,879.0,3649.0
393,212367.0,127091.0,-58082.0,219364.0,313117.0,599844.0,205751.0,298223.0,-543.0,511.0,16442.0,610.0,-460.0,879.0,3649.0
394,213018.0,128819.0,-56617.0,220483.0,314146.0,600639.0,204662.0,296856.0,-543.0,511.0,16442.0,610.0,-460.0,879.0,3649.0
395,213351.0,128729.0,-56812.0,220433.0,314451.0,601283.0,205101.0,297066.0,-543.0,511.0,16442.0,610.0,-460.0,879.0,3649.0
396,212406.0,127909.0,-57875.0,219491.0,313808.0,600937.0,205708.0,296882.0,-543.0,511.0,16442.0,610.0,-460.0,879.0,3649.0
397,210233.0,128401.0,-56517.0,221246.0,315747.0,603021.0,205441.0,294015.0,-543.0,511.0,16442.0,610.0,-460.0,879.0,3649.0
398,209736.0,130428.0,-54152.0,223488.0,317437.0,604179.0,205054.0,292476.0,-543.0,511.0,16442.0,610.0,-460.0,879.0,3649.0
399,209975.0,130276.0,-54155.0,223661.0,317838.0,604679.0,204649.0,292199.0,-543.0,511.0,16442.0,610.0,-460.0,879.0,3649.0
400,212433.0,127378.0,-57437.0,220591.0,315096.0,602082.0,205797.0,297117.0,-543.0,511.0,16442.0,610.0,-460.0,879.0,3649.0
401,215392.0,126848.0,-60334.0,216774.0,311002.0,598156.0,206717.0,301571.0,-387.0,354.0,16689.0,416.0,-801.0,-251.0,3649.0
402,215894.0,129881.0,-58306.0,217953.0,311407.0,598126.0,204680.0,299861.0,-387.0,354.0,16689.0,416.0,-801.0,-251.0,3649.0
403,213810.0,129812.0,-57161.0,219604.0,313233.0,600074.0,204894.0,297532.0,-387.0,354.0,16689.0,416.0,-801.0,-251.0,3649.0
404,212372.0,128795.0,-57424.0,219606.0,313288.0,600114.0,205079.0,296713.0,-387.0,354.0,16689.0,416.0,-801.0,-251.0,3649.0
405,212783.0,130144.0,-56939.0,219582.0,313235.0,600194.0,205378.0,298315.0,-387.0,354.0,16689.0,416.0,-801.0,-251.0,3649.0
406,212001.0,128858.0,-57541.0,219484.0,313736.0,601043.0,205179.0,297737.0,-387.0,354.0,16689.0,416.0,-801.0,-251.0,3649.0
407,211895.0,129074.0,-57282.0,219713.0,314074.0,601518.0,205140.0,296982.0,-387.0,354.0,16689.0,416.0,-801.0,-251.0,3649.0
408,212423.0,127714.0,-58180.0,219258.0,313941.0,601558.0,205903.0,297547.0,-387.0,354.0,16689.0,416.0,-801.0,-251.0,3649.0
409,213449.0,128731.0,-57382.0,219840.0,314072.0,601104.0,205576.0,296913.0,-387.0,354.0,16689.0,416.0,-801.0,-251.0,3649.0
410,215793.0,129791.0,-56774.0,219768.0,313757.0,600702.0,204709.0,296476.0,-387.0,354.0,16689.0,416.0,-801.0,-251.0,3649.0
411,219143.0,129783.0,-57049.0,219696.0,314204.0,601487.0,204831.0,297053.0,-170.0,-467.0,17158.0,1744.0,-585.0,-592.0,3649.0
412,220611.0,128007.0,-58391.0,218826.0,313538.0,600954.0,205559.0,297773.0,-170.0,-467.0,17158.0,1744.0,-585.0,-592.0,3649.0
413,221098.0,128228.0,-58234.0,218991.0,313810.0,601456.0,205419.0,296925.0,-170.0,-467.0,17158.0,1744.0,-585.0,-592.0,3649.0
414,223132.0,128444.0,-58457.0,218510.0,313248.0,600961.0,205061.0,296280.0,-170.0,-467.0,17158.0,1744.0,-585.0,-592.0,3649.0
415,225079.0,127944.0,-58704.0,218469.0,313301.0,601014.0,205321.0,296558.0,-170.0,-467.0,17158.0,1744.0,-585.0,-592.0,3649.0
416,227301.0,129206.0,-57979.0,218957.0,313656.0,601203.0,205158.0,296714.0,-170.0,-467.0,17158.0,1744.0,-585.0,-592.0,3649.0
417,227802.0,129533.0,-57343.0,219602.0,314277.0,601763.0,204963.0,295570.0,-170.0,-467.0,17158.0,1744.0,-585.0,-592.0,3649.0
418,229316.0,128490.0,-57711.0,219402.0,314110.0,601604.0,204736.0,295369.0,-170.0,-467.0,17158.0,1744.0,-585.0,-592.0,3649.0
419,231944.0,129266.0,-57702.0,219028.0,313539.0,600887.0,204516.0,296506.0,-170.0,-467.0,17158.0,1744.0,-585.0,-592.0,3649.0
420,233489.0,129100.0,-58083.0,218626.0,313465.0,600976.0,204396.0,296661.0,-170.0,-467.0,17158.0,1744.0,-585.0,-592.0,3649.0
421,235456.0,128884.0,-58421.0,218255.0,313224.0,600834.0,204447.0,296631.0,-207.0,-951.0,17515.0,3670.0,-1048.0,-1246.0,3649.0
422,236826.0,128881.0,-58812.0,217601.0,312399.0,599823.0,204309.0,296731.0,-207.0,-951.0,17515.0,3670.0,-1048.0,-1246.0,3649.0
423,238069.0,129115.0,-58757.0,217722.0,312583.0,599959.0,204481.0,296771.0,-207.0,-951.0,17515.0,3670.0,-1048.0,-1246.0,3649.0
424,239418.0,128712.0,-58875.0,217889.0,313081.0,600624.0,204297.0,296425.0,-207.0,-951.0,17515.0,3670.0,-1048.0,-1246.0,3649.0
425,241359.0,128853.0,-58850.0,217686.0,312832.0,600414.0,204171.0,296311.0,-207.0,-951.0,17515.0,3670.0,-1048.0,-1246.0,3649.0
426,243561.0,129393.0,-58888.0,217811.0,312754.0,600188.0,203932.0,296291.0,-207.0,-951.0,17515.0,3670.0,-1048.0,-1246.0,3649.0
427,245201.0,129496.0,-58948.0,217701.0,312666.0,599984.0,203898.0,296147.0,-207.0,-951.0,17515.0,3670.0,-1048.0,-1246.0,3649.0
428,247416.0,129734.0,-58716.0,217759.0,312654.0,599886.0,203618.0,296031.0,-207.0,-951.0,17515.0,3670.0,-1048.0,-1246.0,3649.0
429,250170.0,129786.0,-58731.0,217459.0,312518.0,599898.0,203508.0,295828.0,-207.0,-951.0,17515.0,3670.0,-1048.0,-1246.0,3649.0
430,252696.0,129382.0,-59281.0,216789.0,312156.0,599971.0,203652.0,295880.0,-207.0,-951.0,17515.0,3670.0,-1048.0,-1246.0,3649.0
431,255046.0,129750.0,-59822.0,216199.0,311651.0,599614.0,203726.0,295876.0,-325.0,-970.0,17425.0,5035.0,-2077.0,-1560.0,3649.0
432,256691.0,129078.0,-60196.0,216031.0,311478.0,599373.0,203783.0,295954.0,-325.0,-970.0,17425.0,5035.0,-2077.0,-1560.0,3649.0
433,258554.0,127771.0,-59730.0,217037.0,312206.0,599959.0,203892.0,296150.0,-325.0,-970.0,17425.0,5035.0,-2077.0,-1560.0,3649.0
434,260268.0,128334.0,-58963.0,217631.0,312298.0,599769.0,203334.0,295613.0,-325.0,-970.0,17425.0,5035.0,-2077.0,-1560.0,3649.0
435,261892.0,127678.0,-59081.0,217826.0,312619.0,600149.0,203650.0,296027.0,-325.0,-970.0,17425.0,5035.0,-2077.0,-1560.0,3649.0
436,264226.0,127800.0,-59012.0,217848.0,312367.0,599533.0,203329.0,296377.0,-325.0,-970.0,17425.0,5035.0,-2077.0,-1560.0,3649.0
437,266053.0,128327.0,-58722.0,218145.0,312318.0,599315.0,203139.0,295822.0,-325.0,-970.0,17425.0,5035.0,-2077.0,-1560.0,3649.0
438,267461.0,128287.0,-58697.0,218412.0,312820.0,599626.0,202940.0,295836.0,-325.0,-970.0,17425.0,5035.0,-2077.0,-1560.0,3649.0
439,268960.0,128559.0,-58274.0,218621.0,313328.0,599654.0,202929.0,295954.0,-325.0,-970.0,17425.0,5035.0,-2077.0,-1560.0,3649.0
440,270550.0,128437.0,-58596.0,217691.0,312402.0,598858.0,203175.0,295609.0,-325.0,-970.0,17425.0,5035.0,-2077.0,-1560.0,3649.0
441,271929.0,128551.0,-59031.0,217083.0,311301.0,599040.0,203338.0,295534.0,-112.0,-592.0,17003.0,4186.0,-2195.0,-1624.0,3649.0
442,273014.0,128509.0,-59457.0,217161.0,311525.0,599518.0,203140.0,295354.0,-112.0,-592.0,17003.0,4186.0,-2195.0,-1624.0,3649.0
443,274159.0,128633.0,-59426.0,217521.0,311782.0,600014.0,203494.0,295330.0,-112.0,-592.0,17003.0,4186.0,-2195.0,-1624.0,3649.0
444,275335.0,128806.0,-59586.0,217464.0,311642.0,599663.0,203574.0,295120.0,-112.0,-592.0,17003.0,4186.0,-2195.0,-1624.0,3649.0
445,276579.0,129212.0,-59373.0,217679.0,311748.0,599621.0,203464.0,294928.0,-112.0,-592.0,17003.0,4186.0,-2195.0,-1624.0,3649.0
446,277521.0,129198.0,-59610.0,217536.0,311509.0,598920.0,203455.0,294798.0,-112.0,-592.0,17003.0,4186.0,-2195.0,-1624.0,3649.0
447,278591.0,129566.0,-59391.0,217768.0,311691.0,598980.0,202954.0,294623.0,-112.0,-592.0,17003.0,4186.0,-2195.0,-1624.0,3649.0
448,279324.0,129328.0,-59203.0,217912.0,311653.0,599281.0,202839.0,294452.0,-112.0,-592.0,17003.0,4186.0,-2195.0,-1624.0,3649.0
449,280393.0,129258.0,-59384.0,217501.0,311207.0,599659.0,202819.0,294344.0,-112.0,-592.0,17003.0,4186.0,-2195.0,-1624.0,3649.0
450,281350.0,129272.0,-59326.0,217807.0,311727.0,600116.0,203075.0,294274.0,-112.0,-592.0,17003.0,4186.0,-2195.0,-1624.0,3649.0
451,282196.0,129011.0,-59484.0,218043.0,312114.0,600403.0,203201.0,293986.0,-40.0,-214.0,16557.0,3056.0,-2923.0,-2843.0,3649.0
452,283378.0,129063.0,-59571.0,217922.0,311714.0,599828.0,202959.0,293951.0,-40.0,-214.0,16557.0,3056.0,-2923.0,-2843.0,3649.0
453,284489.0,129321.0,-59027.0,218306.0,311678.0,599355.0,203033.0,293812.0,-40.0,-214.0,16557.0,3056.0,-2923.0,-2843.0,3649.0
454,285519.0,129376.0,-58702.0,218671.0,311454.0,598655.0,202838.0,293366.0,-40.0,-214.0,16557.0,3056.0,-2923.0,-2843.0,3649.0
455,286729.0,130123.0,-58114.0,219529.0,312112.0,599069.0,202919.0,293083.0,-40.0,-214.0,16557.0,3056.0,-2923.0,-2843.0,3649.0
456,287508.0,130382.0,-57829.0,219743.0,312269.0,599047.0,202950.0,292638.0,-40.0,-214.0,16557.0,3056.0,-2923.0,-2843.0,3649.0
457,288203.0,129579.0,-58612.0,219246.0,311479.0,599737.0,203114.0,291963.0,-40.0,-214.0,16557.0,3056.0,-2923.0,-2843.0,3649.0
458,288913.0,128549.0,-59851.0,218558.0,311213.0,600489.0,203591.0,291375.0,-40.0,-214.0,16557.0,3056.0,-2923.0,-2843.0,3649.0
459,290130.0,128703.0,-60111.0,217883.0,310691.0,599413.0,203398.0,290795.0,-40.0,-214.0,16557.0,3056.0,-2923.0,-2843.0,3649.0
460,291429.0,129534.0,-59469.0,218054.0,310711.0,598617.0,203175.0,290181.0,-40.0,-214.0,16557.0,3056.0,-2923.0,-2843.0,3649.0
461,292494.0,129873.0,-59024.0,218237.0,310751.0,597572.0,203173.0,289611.0,134.0,201.0,16169.0,2069.0,-3190.0,-3216.0,3649.0
462,293297.0,129853.0,-58851.0,218107.0,310644.0,597848.0,203263.0,288982.0,134.0,201.0,16169.0,2069.0,-3190.0,-3216.0,3649.0
463,293978.0,129704.0,-59190.0,218698.0,311693.0,599303.0,203636.0,288601.0,134.0,201.0,16169.0,2069.0,-3190.0,-3216.0,3649.0
464,295391.0,130473.0,-59431.0,218638.0,311678.0,600099.0,203244.0,287854.0,134.0,201.0,16169.0,2069.0,-3190.0,-3216.0,3649.0
465,296452.0,130376.0,-59226.0,219067.0,311590.0,600293.0,202985.0,286979.0,134.0,201.0,16169.0,2069.0,-3190.0,-3216.0,3649.0
466,297657.0,130284.0,-58871.0,219488.0,311691.0,600027.0,203235.0,286815.0,134.0,201.0,16169.0,2069.0,-3190.0,-3216.0,3649.0
467,299183.0,130953.0,-58377.0,219269.0,311613.0,599251.0,202960.0,286229.0,134.0,201.0,16169.0,2069.0,-3190.0,-3216.0,3649.0
468,300110.0,131343.0,-57927.0,219946.0,312056.0,598923.0,202753.0,285434.0,134.0,201.0,16169.0,2069.0,-3190.0,-3216.0,3649.0
469,300444.0,131037.0,-57799.0,220521.0,312308.0,600062.0,202946.0,284716.0,134.0,201.0,16169.0,2069.0,-3190.0,-3216.0,3649.0
470,300569.0,130514.0,-57921.0,219847.0,311818.0,600463.0,203586.0,284110.0,134.0,201.0,16169.0,2069.0,-3190.0,-3216.0,3649.0
471,301281.0,130288.0,-58951.0,219429.0,311611.0,600351.0,203777.0,283389.0,508.0,915.0,16116.0,1423.0,-3386.0,-2805.0,3649.0
472,302433.0,131208.0,-59000.0,220247.0,311927.0,600498.0,203553.0,282558.0,508.0,915.0,16116.0,1423.0,-3386.0,-2805.0,3649.0
473,303665.0,131451.0,-58356.0,220634.0,311779.0,600745.0,203508.0,282017.0,508.0,915.0,16116.0,1423.0,-3386.0,-2805.0,3649.0
474,304704.0,131593.0,-58302.0,220516.0,311594.0,600284.0,203422.0,281389.0,508.0,915.0,16116.0,1423.0,-3386.0,-2805.0,3649.0
475,305651.0,130811.0,-58602.0,220571.0,312076.0,600173.0,203258.0,280370.0,508.0,915.0,16116.0,1423.0,-3386.0,-2805.0,3649.0
476,306526.0,129733.0,-58754.0,220842.0,312283.0,600384.0,203461.0,279837.0,508.0,915.0,16116.0,1423.0,-3386.0,-2805.0,3649.0
477,307658.0,130154.0,-58259.0,221317.0,312268.0,600931.0,203536.0,279110.0,508.0,915.0,16116.0,1423.0,-3386.0,-2805.0,3649.0
478,309311.0,130431.0,-58422.0,221006.0,312104.0,600551.0,203094.0,278534.0,508.0,915.0,16116.0,1423.0,-3386.0,-2805.0,3649.0
479,310533.0,130421.0,-58286.0,220713.0,312199.0,600719.0,203237.0,278325.0,508.0,915.0,16116.0,1423.0,-3386.0,-2805.0,3649.0
480,310564.0,129970.0,-57509.0,220714.0,312261.0,600496.0,203406.0,277995.0,508.0,915.0,16116.0,1423.0,-3386.0,-2805.0,3649.0
481,312761.0,130624.0,-57522.0,220911.0,311936.0,598138.0,203369.0,277931.0,889.0,1842.0,16354.0,448.0,-3521.0,-1128.0,3649.0
482,315749.0,131988.0,-57891.0,220090.0,310901.0,597153.0,203396.0,277560.0,889.0,1842.0,16354.0,448.0,-3521.0,-1128.0,3649.0
483,317749.0,131821.0,-57997.0,216816.0,310882.0,599200.0,203923.0,277429.0,889.0,1842.0,16354.0,448.0,-3521.0,-1128.0,3649.0
484,320511.0,131446.0,-58576.0,217281.0,310778.0,600807.0,203433.0,276844.0,889.0,1842.0,16354.0,448.0,-3521.0,-1128.0,3649.0
485,324488.0,131734.0,-59082.0,220218.0,311055.0,600614.0,202710.0,276258.0,889.0,1842.0,16354.0,448.0,-3521.0,-1128.0,3649.0
486,327569.0,131168.0,-58711.0,222306.0,311324.0,600232.0,202702.0,275898.0,889.0,1842.0,16354.0,448.0,-3521.0,-1128.0,3649.0
487,330871.0,130357.0,-58953.0,222041.0,311866.0,600030.0,202551.0,275596.0,889.0,1842.0,16354.0,448.0,-3521.0,-1128.0,3649.0
488,334001.0,130248.0,-58734.0,221841.0,312143.0,600076.0,202417.0,274791.0,889.0,1842.0,16354.0,448.0,-3521.0,-1128.0,3649.0
489,336023.0,129834.0,-59040.0,222054.0,311881.0,599885.0,202299.0,274406.0,889.0,1842.0,16354.0,448.0,-3521.0,-1128.0,3649.0
490,336448.0,130221.0,-58908.0,222656.0,311583.0,599816.0,201948.0,274239.0,889.0,1842.0,16354.0,448.0,-3521.0,-1128.0,3649.0
491,335353.0,131144.0,-58307.0,223362.0,311476.0,599703.0,202048.0,274457.0,1464.0,3532.0,16104.0,294.0,-1988.0,2344.0,3649.0
492,333595.0,131124.0,-58021.0,223792.0,311910.0,600028.0,202281.0,274293.0,1464.0,3532.0,16104.0,294.0,-1988.0,2344.0,3649.0
493,331829.0,131018.0,-57790.0,224816.0,312670.0,600689.0,202743.0,274609.0,1464.0,3532.0,16104.0,294.0,-1988.0,2344.0,3649.0
494,329949.0,131913.0,-57559.0,224414.0,312430.0,600319.0,202547.0,274434.0,1464.0,3532.0,16104.0,294.0,-1988.0,2344.0,3649.0
495,327804.0,131689.0,-57917.0,223639.0,312340.0,600371.0,202901.0,274511.0,1464.0,3532.0,16104.0,294.0,-1988.0,2344.0,3649.0
496,325924.0,131399.0,-58192.0,223851.0,312209.0,600345.0,203109.0,274846.0,1464.0,3532.0,16104.0,294.0,-1988.0,2344.0,3649.0
497,324288.0,131644.0,-57940.0,224119.0,312233.0,600307.0,203069.0,274672.0,1464.0,3532.0,16104.0,294.0,-1988.0,2344.0,3649.0
498,322918.0,132386.0,-57507.0,224499.0,312412.0,600436.0,203244.0,274753.0,1464.0,3532.0,16104.0,294.0,-1988.0,2344.0,3649.0
499,321039.0,132861.0,-56940.0,225198.0,312982.0,601064.0,203345.0,274091.0,1464.0,3532.0,16104.0,294.0,-1988.0,2344.0,3649.0
500,319445.0,132558.0,-57056.0,225276.0,313043.0,601054.0,203279.0,273781.0,1464.0,3532.0,16104.0,294.0,-1988.0,2344.0,3649.0
501,318125.0,132117.0,-57503.0,225079.0,313064.0,601011.0,203528.0,273793.0,1503.0,4515.0,15875.0,-771.0,-1287.0,3593.0,3649.0
502,316817.0,132173.0,-57250.0,225423.0,313078.0,601145.0,203711.0,274081.0,1503.0,4515.0,15875.0,-771.0,-1287.0,3593.0,3649.0
503,315760.0,133362.0,-56654.0,225579.0,312684.0,600990.0,203722.0,274311.0,1503.0,4515.0,15875.0,-771.0,-1287.0,3593.0,3649.0
504,314056.0,133124.0,-57014.0,225284.0,312441.0,600691.0,203669.0,273925.0,1503.0,4515.0,15875.0,-771.0,-1287.0,3593.0,3649.0
505,312246.0,132609.0,-56927.0,225790.0,312862.0,600929.0,203854.0,273853.0,1503.0,4515.0,15875.0,-771.0,-1287.0,3593.0,3649.0
506,310558.0,132657.0,-56629.0,226263.0,313011.0,601019.0,203798.0,273784.0,1503.0,4515.0,15875.0,-771.0,-1287.0,3593.0,3649.0
507,308725.0,132868.0,-56419.0,226477.0,312989.0,601364.0,203884.0,273751.0,1503.0,4515.0,15875.0,-771.0,-1287.0,3593.0,3649.0
508,307126.0,132912.0,-56611.0,226453.0,313149.0,601789.0,204104.0,273944.0,1503.0,4515.0,15875.0,-771.0,-1287.0,3593.0,3649.0
509,305945.0,132931.0,-56917.0,226246.0,313127.0,601744.0,203996.0,273918.0,1503.0,4515.0,15875.0,-771.0,-1287.0,3593.0,3649.0
510,306639.0,133039.0,-56820.0,226257.0,312886.0,601586.0,204063.0,273983.0,1503.0,4515.0,15875.0,-771.0,-1287.0,3593.0,3649.0
511,309953.0,132946.0,-56886.0,226332.0,312561.0,601103.0,203945.0,273688.0,1560.0,3505.0,15809.0,-915.0,-232.0,4197.0,3649.0
512,313109.0,132976.0,-56764.0,226353.0,312069.0,600498.0,203645.0,273339.0,1560.0,3505.0,15809.0,-915.0,-232.0,4197.0,3649.0
513,315370.0,133263.0,-56398.0,226307.0,311911.0,600691.0,203751.0,273199.0,1560.0,3505.0,15809.0,-915.0,-232.0,4197.0,3649.0
514,317116.0,132794.0,-57284.0,225499.0,311426.0,600904.0,203575.0,272957.0,1560.0,3505.0,15809.0,-915.0,-232.0,4197.0,3649.0
515,318427.0,132524.0,-57462.0,225582.0,311149.0,601015.0,203524.0,272773.0,1560.0,3505.0,15809.0,-915.0,-232.0,4197.0,3649.0
516,319933.0,132546.0,-57252.0,225758.0,311043.0,600830.0,203473.0,272554.0,1560.0,3505.0,15809.0,-915.0,-232.0,4197.0,3649.0
517,321580.0,132572.0,-57404.0,225468.0,311118.0,600744.0,203466.0,272391.0,1560.0,3505.0,15809.0,-915.0,-232.0,4197.0,3649.0
518,323518.0,132879.0,-57380.0,225618.0,311163.0,600633.0,203401.0,272368.0,1560.0,3505.0,15809.0,-915.0,-232.0,4197.0,3649.0
519,324895.0,133013.0,-57301.0,225897.0,311126.0,600558.0,203038.0,272081.0,1560.0,3505.0,15809.0,-915.0,-232.0,4197.0,3649.0
520,325396.0,132562.0,-57432.0,226161.0,311138.0,601061.0,203191.0,272261.0,1560.0,3505.0,15809.0,-915.0,-232.0,4197.0,3649.0
521,325846.0,132693.0,-57499.0,226296.0,311018.0,601230.0,203083.0,271930.0,1999.0,1779.0,15722.0,-1170.0,587.0,2957.0,3649.0
522,326003.0,132859.0,-57289.0,226711.0,311666.0,601593.0,203077.0,271529.0,1999.0,1779.0,15722.0,-1170.0,587.0,2957.0,3649.0
523,326139.0,133106.0,-56790.0,227251.0,312129.0,602008.0,203330.0,271324.0,1999.0,1779.0,15722.0,-1170.0,587.0,2957.0,3649.0
524,325899.0,132604.0,-57023.0,227031.0,311821.0,601940.0,203295.0,270535.0,1999.0,1779.0,15722.0,-1170.0,587.0,2957.0,3649.0
525,326209.0,132537.0,-57290.0,226776.0,311657.0,601886.0,203448.0,270249.0,1999.0,1779.0,15722.0,-1170.0,587.0,2957.0,3649.0
526,327404.0,132214.0,-57996.0,225993.0,311018.0,601281.0,203286.0,270624.0,1999.0,1779.0,15722.0,-1170.0,587.0,2957.0,3649.0
527,329760.0,132299.0,-57838.0,225823.0,310674.0,601170.0,203366.0,271349.0,1999.0,1779.0,15722.0,-1170.0,587.0,2957.0,3649.0
528,332105.0,132974.0,-57317.0,225864.0,310239.0,600886.0,203328.0,271560.0,1999.0,1779.0,15722.0,-1170.0,587.0,2957.0,3649.0
529,333279.0,132984.0,-57823.0,225654.0,309956.0,600433.0,202917.0,271460.0,1999.0,1779.0,15722.0,-1170.0,587.0,2957.0,3649.0
530,333801.0,133141.0,-57331.0,226393.0,310731.0,601024.0,203090.0,271527.0,1999.0,1779.0,15722.0,-1170.0,587.0,2957.0,3649.0
531,334701.0,132985.0,-57187.0,226259.0,310752.0,600946.0,203195.0,271980.0,1576.0,370.0,16221.0,-612.0,770.0,984.0,3649.0
532,335947.0,133145.0,-57412.0,225638.0,310391.0,600682.0,203223.0,272343.0,1576.0,370.0,16221.0,-612.0,770.0,984.0,3649.0
533,336777.0,133641.0,-57581.0,225375.0,309954.0,600309.0,203521.0,273096.0,1576.0,370.0,16221.0,-612.0,770.0,984.0,3649.0
534,337596.0,133090.0,-58316.0,224994.0,309179.0,599502.0,203233.0,273049.0,1576.0,370.0,16221.0,-612.0,770.0,984.0,3649.0
535,338496.0,133286.0,-58883.0,224801.0,308786.0,599586.0,203320.0,273027.0,1576.0,370.0,16221.0,-612.0,770.0,984.0,3649.0
536,338308.0,132833.0,-58902.0,225239.0,308950.0,599982.0,203321.0,272394.0,1576.0,370.0,16221.0,-612.0,770.0,984.0,3649.0
537,338499.0,132315.0,-58351.0,226408.0,309642.0,600328.0,203282.0,272326.0,1576.0,370.0,16221.0,-612.0,770.0,984.0,3649.0
538,339714.0,132883.0,-57387.0,226810.0,309885.0,600371.0,203305.0,272812.0,1576.0,370.0,16221.0,-612.0,770.0,984.0,3649.0
539,340944.0,132916.0,-57355.0,226240.0,309627.0,600361.0,203266.0,272788.0,1576.0,370.0,16221.0,-612.0,770.0,984.0,3649.0
540,342472.0,133060.0,-57636.0,226699.0,309518.0,600288.0,203073.0,271974.0,1576.0,370.0,16221.0,-612.0,770.0,984.0,3649.0
541,343568.0,133424.0,-57339.0,226208.0,309021.0,600414.0,203195.0,271761.0,899.0,91.0,16531.0,237.0,-93.0,-275.0,3649.0
542,344210.0,133251.0,-57871.0,225266.0,308848.0,600503.0,203377.0,271945.0,899.0,91.0,16531.0,237.0,-93.0,-275.0,3649.0
543,344524.0,133299.0,-58084.0,225900.0,309315.0,599719.0,203379.0,271754.0,899.0,91.0,16531.0,237.0,-93.0,-275.0,3649.0
544,344564.0,133279.0,-57828.0,225236.0,308240.0,598597.0,203449.0,271574.0,899.0,91.0,16531.0,237.0,-93.0,-275.0,3649.0
545,345024.0,133358.0,-56791.0,224269.0,307896.0,599382.0,203492.0,271608.0,899.0,91.0,16531.0,237.0,-93.0,-275.0,3649.0
546,346022.0,133224.0,-57284.0,225108.0,308193.0,600398.0,203133.0,271621.0,899.0,91.0,16531.0,237.0,-93.0,-275.0,3649.0
547,347769.0,132717.0,-59193.0,226868.0,308759.0,600850.0,202846.0,272014.0,899.0,91.0,16531.0,237.0,-93.0,-275.0,3649.0
548,348738.0,132886.0,-58493.0,225939.0,308754.0,600957.0,202678.0,271688.0,899.0,91.0,16531.0,237.0,-93.0,-275.0,3649.0
549,348905.0,133453.0,-57989.0,226466.0,309271.0,601201.0,202968.0,271458.0,899.0,91.0,16531.0,237.0,-93.0,-275.0,3649.0
550,348424.0,133158.0,-57871.0,227003.0,309449.0,601279.0,203214.0,271211.0,899.0,91.0,16531.0,237.0,-93.0,-275.0,3649.0
551,348619.0,132956.0,-57886.0,226926.0,309358.0,601311.0,203258.0,270903.0,567.0,252.0,16845.0,488.0,-18.0,-334.0,3649.0
552,349056.0,132966.0,-57801.0,226826.0,309126.0,600989.0,202968.0,271321.0,567.0,252.0,16845.0,488.0,-18.0,-334.0,3649.0
553,349933.0,133531.0,-57298.0,227226.0,309351.0,601039.0,203247.0,271344.0,567.0,252.0,16845.0,488.0,-18.0,-334.0,3649.0
554,350484.0,133854.0,-57090.0,227417.0,309208.0,600799.0,203206.0,270704.0,567.0,252.0,16845.0,488.0,-18.0,-334.0,3649.0
555,351379.0,134033.0,-56894.0,227635.0,308989.0,600956.0,203374.0,271122.0,567.0,252.0,16845.0,488.0,-18.0,-334.0,3649.0
556,352263.0,134139.0,-57046.0,227437.0,309117.0,601238.0,203158.0,271315.0,567.0,252.0,16845.0,488.0,-18.0,-334.0,3649.0
557,353323.0,134361.0,-57182.0,227325.0,309236.0,600976.0,202913.0,271018.0,567.0,252.0,16845.0,488.0,-18.0,-334.0,3649.0
558,354256.0,133501.0,-57809.0,226925.0,308928.0,600642.0,202787.0,271006.0,567.0,252.0,16845.0,488.0,-18.0,-334.0,3649.0
559,355389.0,133848.0,-57788.0,226737.0,308544.0,600363.0,202819.0,271044.0,567.0,252.0,16845.0,488.0,-18.0,-334.0,3649.0
560,356250.0,133523.0,-57932.0,226699.0,308461.0,600779.0,202835.0,270868.0,567.0,252.0,16845.0,488.0,-18.0,-334.0,3649.0
561,356627.0,132941.0,-58134.0,226668.0,308445.0,601096.0,202947.0,270563.0,575.0,629.0,16789.0,1298.0,318.0,263.0,3649.0
562,357278.0,133221.0,-58071.0,226626.0,308263.0,600853.0,202861.0,270049.0,575.0,629.0,16789.0,1298.0,318.0,263.0,3649.0
563,358319.0,133684.0,-57632.0,227163.0,308744.0,601238.0,202826.0,269671.0,575.0,629.0,16789.0,1298.0,318.0,263.0,3649.0
564,359523.0,133424.0,-57839.0,227123.0,308622.0,601092.0,202611.0,269755.0,575.0,629.0,16789.0,1298.0,318.0,263.0,3649.0
565,360849.0,133648.0,-57841.0,227046.0,308360.0,600849.0,202561.0,270563.0,575.0,629.0,16789.0,1298.0,318.0,263.0,3649.0
566,361967.0,133450.0,-58293.0,226539.0,307762.0,600239.0,202578.0,271854.0,575.0,629.0,16789.0,1298.0,318.0,263.0,3649.0
567,362534.0,133154.0,-58713.0,226159.0,307394.0,600005.0,202624.0,272080.0,575.0,629.0,16789.0,1298.0,318.0,263.0,3649.0
568,363173.0,133281.0,-58616.0,226363.0,307663.0,600392.0,202744.0,271623.0,575.0,629.0,16789.0,1298.0,318.0,263.0,3649.0
569,364377.0,133638.0,-58559.0,226434.0,307612.0,600246.0,202553.0,271626.0,575.0,629.0,16789.0,1298.0,318.0,263.0,3649.0
570,365488.0,133686.0,-58694.0,226359.0,307501.0,600208.0,202371.0,271748.0,575.0,629.0,16789.0,1298.0,318.0,263.0,3649.0
571,366666.0,133999.0,-58472.0,226653.0,307755.0,600518.0,202586.0,271720.0,618.0,1183.0,16629.0,565.0,-345.0,616.0,3649.0
572,367185.0,133927.0,-58499.0,226674.0,307671.0,600334.0,202616.0,271421.0,618.0,1183.0,16629.0,565.0,-345.0,616.0,3649.0
573,367869.0,133876.0,-58509.0,226798.0,307699.0,600266.0,202440.0,271613.0,618.0,1183.0,16629.0,565.0,-345.0,616.0,3649.0
574,368154.0,133046.0,-58632.0,226963.0,308021.0,600739.0,202221.0,271286.0,618.0,1183.0,16629.0,565.0,-345.0,616.0,3649.0
575,368612.0,132916.0,-58606.0,226803.0,307803.0,600543.0,202454.0,271195.0,618.0,1183.0,16629.0,565.0,-345.0,616.0,3649.0
576,369655.0,133541.0,-58286.0,226908.0,307728.0,600378.0,202625.0,271365.0,618.0,1183.0,16629.0,565.0,-345.0,616.0,3649.0
577,370403.0,133611.0,-58337.0,226979.0,307806.0,600434.0,202554.0,271219.0,618.0,1183.0,16629.0,565.0,-345.0,616.0,3649.0
578,371284.0,133678.0,-58466.0,226870.0,307690.0,600332.0,202515.0,271418.0,618.0,1183.0,16629.0,565.0,-345.0,616.0,3649.0
579,372402.0,133976.0,-58112.0,227104.0,307891.0,600532.0,202291.0,271178.0,618.0,1183.0,16629.0,565.0,-345.0,616.0,3649.0
580,372902.0,133919.0,-58072.0,227333.0,308042.0,600780.0,202608.0,271155.0,618.0,1183.0,16629.0,565.0,-345.0,616.0,3649.0
581,373059.0,133506.0,-58551.0,227332.0,307892.0,600693.0,202677.0,271201.0,842.0,1426.0,16447.0,-122.0,-746.0,83.0,3649.0
582,373568.0,133568.0,-58320.0,227511.0,308018.0,600761.0,202007.0,270957.0,842.0,1426.0,16447.0,-122.0,-746.0,83.0,3649.0
583,374090.0,133889.0,-58211.0,227524.0,307954.0,600707.0,202202.0,270989.0,842.0,1426.0,16447.0,-122.0,-746.0,83.0,3649.0
584,374304.0,133463.0,-58846.0,226863.0,307296.0,600066.0,202512.0,270851.0,842.0,1426.0,16447.0,-122.0,-746.0,83.0,3649.0
585,374674.0,133303.0,-59161.0,226714.0,307097.0,599887.0,202845.0,270852.0,842.0,1426.0,16447.0,-122.0,-746.0,83.0,3649.0
586,375363.0,133474.0,-58959.0,227166.0,307546.0,600349.0,202483.0,270938.0,842.0,1426.0,16447.0,-122.0,-746.0,83.0,3649.0
587,376073.0,133963.0,-58350.0,227750.0,308003.0,600845.0,202381.0,271070.0,842.0,1426.0,16447.0,-122.0,-746.0,83.0,3649.0
588,376377.0,133713.0,-58248.0,227754.0,307910.0,600809.0,202306.0,271114.0,842.0,1426.0,16447.0,-122.0,-746.0,83.0,3649.0
589,376703.0,133489.0,-58367.0,227671.0,307776.0,600773.0,202231.0,270898.0,842.0,1426.0,16447.0,-122.0,-746.0,83.0,3649.0
590,377155.0,133579.0,-58388.0,227569.0,307553.0,600654.0,202183.0,270728.0,842.0,1426.0,16447.0,-122.0,-746.0,83.0,3649.0
591,377548.0,133613.0,-58369.0,227601.0,307584.0,600601.0,202222.0,270761.0,1097.0,1228.0,16355.0,-460.0,-894.0,-443.0,3649.0
592,377925.0,133781.0,-58322.0,227659.0,307646.0,600536.0,202120.0,270674.0,1097.0,1228.0,16355.0,-460.0,-894.0,-443.0,3649.0
593,378079.0,133957.0,-58173.0,227938.0,307918.0,600908.0,202158.0,270526.0,1097.0,1228.0,16355.0,-460.0,-894.0,-443.0,3649.0
594,378269.0,133869.0,-58226.0,228050.0,307924.0,600921.0,202428.0,270554.0,1097.0,1228.0,16355.0,-460.0,-894.0,-443.0,3649.0
595,378766.0,134136.0,-58042.0,228308.0,307957.0,600815.0,202448.0,270539.0,1097.0,1228.0,16355.0,-460.0,-894.0,-443.0,3649.0
596,379256.0,134317.0,-58107.0,228102.0,307743.0,600706.0,202419.0,270638.0,1097.0,1228.0,16355.0,-460.0,-894.0,-443.0,3649.0
597,379784.0,134143.0,-58311.0,227903.0,307750.0,600756.0,202414.0,270896.0,1097.0,1228.0,16355.0,-460.0,-894.0,-443.0,3649.0
598,380445.0,134495.0,-57881.0,228513.0,308148.0,601144.0,202445.0,270979.0,1097.0,1228.0,16355.0,-460.0,-894.0,-443.0,3649.0
599,380926.0,134411.0,-57971.0,228378.0,307963.0,600954.0,202331.0,270978.0,1097.0,1228.0,16355.0,-460.0,-894.0,-443.0,3649.0
600,381086.0,133838.0,-58546.0,227879.0,307635.0,600595.0,202294.0,270733.0,1097.0,1228.0,16355.0,-460.0,-894.0,-443.0,3649.0
601,381485.0,133914.0,-58632.0,227766.0,307578.0,600721.0,202524.0,270654.0,1285.0,870.0,16225.0,-686.0,-256.0,-364.0,3649.0
602,381988.0,133700.0,-58918.0,227625.0,307097.0,600503.0,202448.0,270543.0,1285.0,870.0,16225.0,-686.0,-256.0,-364.0,3649.0
603,382592.0,134336.0,-58316.0,227982.0,307222.0,600565.0,202534.0,270739.0,1285.0,870.0,16225.0,-686.0,-256.0,-364.0,3649.0
604,382593.0,134337.0,-58078.0,227513.0,307378.0,600458.0,202288.0,270363.0,1285.0,870.0,16225.0,-686.0,-256.0,-364.0,3649.0
605,382799.0,134318.0,-57976.0,227559.0,307668.0,600602.0,202293.0,269694.0,1285.0,870.0,16225.0,-686.0,-256.0,-364.0,3649.0
606,383482.0,134348.0,-57894.0,227839.0,307470.0,600519.0,202239.0,269628.0,1285.0,870.0,16225.0,-686.0,-256.0,-364.0,3649.0
607,384669.0,134808.0,-57345.0,229072.0,307520.0,600568.0,202209.0,269658.0,1285.0,870.0,16225.0,-686.0,-256.0,-364.0,3649.0
608,385327.0,134635.0,-57879.0,228589.0,307511.0,600678.0,202382.0,269726.0,1285.0,870.0,16225.0,-686.0,-256.0,-364.0,3649.0
609,385667.0,134908.0,-57988.0,227829.0,307170.0,600826.0,202592.0,269983.0,1285.0,870.0,16225.0,-686.0,-256.0,-364.0,3649.0
610,386279.0,135128.0,-57542.0,229179.0,307479.0,600724.0,202231.0,270139.0,1285.0,870.0,16225.0,-686.0,-256.0,-364.0,3649.0
611,386970.0,134513.0,-57982.0,229458.0,307975.0,600953.0,202026.0,270489.0,1384.0,1040.0,16178.0,-649.0,541.0,57.0,3649.0
612,387601.0,134115.0,-58585.0,227698.0,307191.0,600735.0,202464.0,271655.0,1384.0,1040.0,16178.0,-649.0,541.0,57.0,3649.0
613,388534.0,134716.0,-58161.0,228311.0,307337.0,600616.0,202710.0,272378.0,1384.0,1040.0,16178.0,-649.0,541.0,57.0,3649.0
614,389038.0,134611.0,-58581.0,227840.0,306491.0,600209.0,202380.0,272493.0,1384.0,1040.0,16178.0,-649.0,541.0,57.0,3649.0
615,389039.0,134434.0,-58459.0,228188.0,307028.0,600801.0,202521.0,272440.0,1384.0,1040.0,16178.0,-649.0,541.0,57.0,3649.0
616,389278.0,134617.0,-58342.0,228255.0,307083.0,600675.0,202452.0,272230.0,1384.0,1040.0,16178.0,-649.0,541.0,57.0,3649.0
617,389337.0,134741.0,-58224.0,228378.0,307174.0,600780.0,202680.0,271951.0,1384.0,1040.0,16178.0,-649.0,541.0,57.0,3649.0
618,389465.0,134204.0,-58257.0,228685.0,307540.0,601136.0,202638.0,271594.0,1384.0,1040.0,16178.0,-649.0,541.0,57.0,3649.0
619,390038.0,134489.0,-58241.0,228723.0,307352.0,600858.0,202406.0,271590.0,1384.0,1040.0,16178.0,-649.0,541.0,57.0,3649.0
620,390582.0,134884.0,-57877.0,229090.0,307648.0,601204.0,202596.0,271509.0,1384.0,1040.0,16178.0,-649.0,541.0,57.0,3649.0
621,391005.0,135048.0,-57814.0,228824.0,307568.0,601258.0,202678.0,271533.0,1303.0,1350.0,16387.0,-599.0,780.0,26.0,3649.0
622,391150.0,134814.0,-57997.0,228885.0,307589.0,601151.0,202391.0,271076.0,1303.0,1350.0,16387.0,-599.0,780.0,26.0,3649.0
623,391418.0,135053.0,-57776.0,229161.0,307715.0,601288.0,202476.0,270893.0,1303.0,1350.0,16387.0,-599.0,780.0,26.0,3649.0
624,391581.0,134939.0,-57896.0,229031.0,307511.0,601107.0,202287.0,270720.0,1303.0,1350.0,16387.0,-599.0,780.0,26.0,3649.0
625,390921.0,134373.0,-58212.0,228969.0,307528.0,601220.0,202342.0,270519.0,1303.0,1350.0,16387.0,-599.0,780.0,26.0,3649.0
626,390445.0,134575.0,-58069.0,229122.0,307628.0,601319.0,202436.0,270509.0,1303.0,1350.0,16387.0,-599.0,780.0,26.0,3649.0
627,390473.0,134989.0,-57805.0,229239.0,307513.0,601106.0,201990.0,269952.0,1303.0,1350.0,16387.0,-599.0,780.0,26.0,3649.0
628,390543.0,134932.0,-57651.0,229478.0,307709.0,601299.0,201914.0,269799.0,1303.0,1350.0,16387.0,-599.0,780.0,26.0,3649.0
629,391379.0,135208.0,-57549.0,229567.0,307794.0,601452.0,202296.0,271087.0,1303.0,1350.0,16387.0,-599.0,780.0,26.0,3649.0
630,392003.0,135011.0,-58033.0,229089.0,307331.0,601061.0,202257.0,271402.0,1303.0,1350.0,16387.0,-599.0,780.0,26.0,3649.0
631,392429.0,134851.0,-58323.0,228834.0,307026.0,600769.0,202277.0,272104.0,1053.0,1114.0,16616.0,-337.0,110.0,-336.0,3649.0
632,392984.0,135169.0,-58247.0,228854.0,306936.0,600693.0,202531.0,273024.0,1053.0,1114.0,16616.0,-337.0,110.0,-336.0,3649.0
633,392914.0,135956.0,-57619.0,229318.0,307211.0,600957.0,202588.0,272918.0,1053.0,1114.0,16616.0,-337.0,110.0,-336.0,3649.0
634,392281.0,136323.0,-57306.0,229663.0,307561.0,601388.0,202589.0,272368.0,1053.0,1114.0,16616.0,-337.0,110.0,-336.0,3649.0
635,391969.0,135521.0,-57486.0,229906.0,307893.0,601651.0,202633.0,272473.0,1053.0,1114.0,16616.0,-337.0,110.0,-336.0,3649.0
636,391676.0,135386.0,-57671.0,229704.0,307696.0,601536.0,202674.0,272404.0,1053.0,1114.0,16616.0,-337.0,110.0,-336.0,3649.0
637,391514.0,135428.0,-57817.0,229485.0,307464.0,601316.0,202473.0,272281.0,1053.0,1114.0,16616.0,-337.0,110.0,-336.0,3649.0
638,391608.0,135713.0,-57522.0,229806.0,307739.0,601582.0,202587.0,272339.0,1053.0,1114.0,16616.0,-337.0,110.0,-336.0,3649.0
639,391449.0,135611.0,-57532.0,229868.0,307786.0,601678.0,202424.0,272102.0,1053.0,1114.0,16616.0,-337.0,110.0,-336.0,3649.0
640,391290.0,135903.0,-57284.0,230096.0,307957.0,601862.0,202411.0,272023.0,1053.0,1114.0,16616.0,-337.0,110.0,-336.0,3649.0
641,391238.0,136001.0,-57127.0,230308.0,308154.0,602099.0,202663.0,272204.0,989.0,833.0,16778.0,148.0,-525.0,-313.0,3649.0
642,390642.0,135443.0,-57525.0,230061.0,307950.0,601929.0,202809.0,272101.0,989.0,833.0,16778.0,148.0,-525.0,-313.0,3649.0
643,389716.0,135465.0,-57307.0,230358.0,308195.0,602203.0,203023.0,272014.0,989.0,833.0,16778.0,148.0,-525.0,-313.0,3649.0
644,388831.0,135453.0,-57084.0,230615.0,308427.0,602424.0,202761.0,271233.0,989.0,833.0,16778.0,148.0,-525.0,-313.0,3649.0
645,388518.0,135718.0,-56659.0,231066.0,308794.0,602783.0,202560.0,270066.0,989.0,833.0,16778.0,148.0,-525.0,-313.0,3649.0
646,388047.0,135323.0,-56357.0,231177.0,308744.0,602639.0,202208.0,269016.0,989.0,833.0,16778.0,148.0,-525.0,-313.0,3649.0
647,388265.0,135576.0,-55924.0,231497.0,308948.0,602807.0,202357.0,269702.0,989.0,833.0,16778.0,148.0,-525.0,-313.0,3649.0
648,389706.0,135983.0,-57062.0,230708.0,308499.0,602523.0,202815.0,272022.0,989.0,833.0,16778.0,148.0,-525.0,-313.0,3649.0
649,391305.0,137251.0,-56661.0,230840.0,308457.0,602404.0,202776.0,273313.0,989.0,833.0,16778.0,148.0,-525.0,-313.0,3649.0
650,391676.0,137830.0,-55853.0,231564.0,308984.0,602751.0,202174.0,273816.0,989.0,833.0,16778.0,148.0,-525.0,-313.0,3649.0
651,391223.0,137724.0,-55991.0,231538.0,308956.0,602612.0,201583.0,273548.0,1086.0,755.0,16871.0,775.0,-994.0,-951.0,3649.0
652,390839.0,138354.0,-55131.0,232385.0,309693.0,603290.0,201144.0,272110.0,1086.0,755.0,16871.0,775.0,-994.0,-951.0,3649.0
653,389264.0,137256.0,-55721.0,232041.0,309663.0,603593.0,202490.0,270071.0,1086.0,755.0,16871.0,775.0,-994.0,-951.0,3649.0
654,387319.0,135566.0,-56933.0,231111.0,309011.0,603248.0,204448.0,268751.0,1086.0,755.0,16871.0,775.0,-994.0,-951.0,3649.0
655,384194.0,133980.0,-57064.0,231344.0,309434.0,603848.0,204578.0,268350.0,1086.0,755.0,16871.0,775.0,-994.0,-951.0,3649.0
656,384118.0,132291.0,-57141.0,230938.0,308853.0,603087.0,203984.0,272294.0,1086.0,755.0,16871.0,775.0,-994.0,-951.0,3649.0
657,388379.0,133585.0,-58156.0,229698.0,307464.0,601594.0,203414.0,276326.0,1086.0,755.0,16871.0,775.0,-994.0,-951.0,3649.0
658,390513.0,135418.0,-58600.0,229324.0,306969.0,601053.0,203096.0,275673.0,1086.0,755.0,16871.0,775.0,-994.0,-951.0,3649.0
659,391718.0,137406.0,-57423.0,229946.0,307154.0,600991.0,203013.0,275326.0,1086.0,755.0,16871.0,775.0,-994.0,-951.0,3649.0
660,392748.0,137724.0,-57321.0,229923.0,306965.0,600762.0,203207.0,276058.0,1086.0,755.0,16871.0,775.0,-994.0,-951.0,3649.0
661,391671.0,137328.0,-57084.0,229982.0,306960.0,600837.0,203091.0,276873.0,1010.0,823.0,17286.0,3399.0,-2974.0,-1628.0,3649.0
662,391021.0,137694.0,-56369.0,230745.0,307769.0,601741.0,202876.0,275320.0,1010.0,823.0,17286.0,3399.0,-2974.0,-1628.0,3649.0
663,389981.0,138490.0,-55751.0,231825.0,308888.0,602825.0,203210.0,274456.0,1010.0,823.0,17286.0,3399.0,-2974.0,-1628.0,3649.0
664,388630.0,137740.0,-55904.0,231736.0,308774.0,602653.0,203399.0,275307.0,1010.0,823.0,17286.0,3399.0,-2974.0,-1628.0,3649.0
665,388526.0,137352.0,-56549.0,231023.0,308020.0,601911.0,203491.0,275639.0,1010.0,823.0,17286.0,3399.0,-2974.0,-1628.0,3649.0
666,389184.0,137492.0,-56694.0,230908.0,307823.0,601706.0,202891.0,274571.0,1010.0,823.0,17286.0,3399.0,-2974.0,-1628.0,3649.0
667,389416.0,137403.0,-56701.0,231082.0,308038.0,601989.0,202796.0,274276.0,1010.0,823.0,17286.0,3399.0,-2974.0,-1628.0,3649.0
668,388885.0,137411.0,-56712.0,231141.0,308156.0,602209.0,203069.0,274923.0,1010.0,823.0,17286.0,3399.0,-2974.0,-1628.0,3649.0
669,388258.0,137931.0,-55946.0,231951.0,308984.0,603187.0,203429.0,275120.0,1010.0,823.0,17286.0,3399.0,-2974.0,-1628.0,3649.0
670,387159.0,138028.0,-55793.0,232256.0,309358.0,603711.0,202779.0,273878.0,1010.0,823.0,17286.0,3399.0,-2974.0,-1628.0,3649.0
671,386608.0,139058.0,-55615.0,232390.0,309586.0,604050.0,202276.0,274814.0,380.0,800.0,17535.0,4308.0,-6545.0,-2552.0,3649.0
672,385177.0,138624.0,-56101.0,231894.0,309210.0,603882.0,203264.0,276169.0,380.0,800.0,17535.0,4308.0,-6545.0,-2552.0,3649.0
673,383590.0,136328.0,-58196.0,230353.0,307638.0,602495.0,203889.0,276901.0,380.0,800.0,17535.0,4308.0,-6545.0,-2552.0,3649.0
674,380414.0,132968.0,-59742.0,229109.0,306136.0,601188.0,204238.0,276212.0,380.0,800.0,17535.0,4308.0,-6545.0,-2552.0,3649.0
675,378934.0,134061.0,-58862.0,229740.0,306295.0,601628.0,204256.0,274564.0,380.0,800.0,17535.0,4308.0,-6545.0,-2552.0,3649.0
676,379570.0,136946.0,-57082.0,230684.0,306797.0,602134.0,204013.0,273976.0,380.0,800.0,17535.0,4308.0,-6545.0,-2552.0,3649.0
677,377333.0,138497.0,-55148.0,232036.0,307861.0,603144.0,204108.0,271261.0,380.0,800.0,17535.0,4308.0,-6545.0,-2552.0,3649.0
678,374416.0,139168.0,-53399.0,233373.0,308261.0,603385.0,204383.0,268576.0,380.0,800.0,17535.0,4308.0,-6545.0,-2552.0,3649.0
679,374518.0,139936.0,-53097.0,233304.0,307254.0,602802.0,203926.0,270201.0,380.0,800.0,17535.0,4308.0,-6545.0,-2552.0,3649.0
680,374425.0,140053.0,-53374.0,233235.0,307409.0,603139.0,203698.0,273119.0,380.0,800.0,17535.0,4308.0,-6545.0,-2552.0,3649.0
681,373397.0,139799.0,-53514.0,233175.0,307533.0,603121.0,204996.0,276298.0,-79.0,-121.0,18186.0,5570.0,-9830.0,-4006.0,3649.0
682,370979.0,140211.0,-53004.0,233396.0,307736.0,603484.0,206915.0,277408.0,-79.0,-121.0,18186.0,5570.0,-9830.0,-4006.0,3649.0
683,370908.0,141541.0,-52279.0,233479.0,306436.0,602293.0,206514.0,279358.0,-79.0,-121.0,18186.0,5570.0,-9830.0,-4006.0,3649.0
684,370743.0,143202.0,-50105.0,236331.0,308921.0,603921.0,202169.0,278362.0,-79.0,-121.0,18186.0,5570.0,-9830.0,-4006.0,3649.0
685,368459.0,142849.0,-51809.0,235225.0,308469.0,604645.0,203933.0,278852.0,-79.0,-121.0,18186.0,5570.0,-9830.0,-4006.0,3649.0
686,362910.0,139864.0,-56619.0,231639.0,307061.0,604534.0,205517.0,277487.0,-79.0,-121.0,18186.0,5570.0,-9830.0,-4006.0,3649.0
687,358968.0,137113.0,-62143.0,226192.0,302643.0,601053.0,206795.0,277617.0,-79.0,-121.0,18186.0,5570.0,-9830.0,-4006.0,3649.0
688,357048.0,136228.0,-63779.0,224326.0,301409.0,600683.0,205499.0,275890.0,-79.0,-121.0,18186.0,5570.0,-9830.0,-4006.0,3649.0
689,355029.0,136387.0,-62535.0,225549.0,302836.0,602866.0,205317.0,270723.0,-79.0,-121.0,18186.0,5570.0,-9830.0,-4006.0,3649.0
690,349308.0,138652.0,-56921.0,230630.0,306924.0,606229.0,205057.0,261939.0,-79.0,-121.0,18186.0,5570.0,-9830.0,-4006.0,3649.0
691,343472.0,141058.0,-50746.0,236417.0,311858.0,606754.0,203371.0,256977.0,683.0,-954.0,18389.0,9336.0,-7973.0,-3157.0,3649.0
692,346386.0,139543.0,-51460.0,235349.0,310041.0,603164.0,204249.0,268304.0,683.0,-954.0,18389.0,9336.0,-7973.0,-3157.0,3649.0
693,349103.0,137488.0,-54035.0,231489.0,305776.0,599699.0,207263.0,281923.0,683.0,-954.0,18389.0,9336.0,-7973.0,-3157.0,3649.0
694,346176.0,136332.0,-56052.0,228531.0,302821.0,596432.0,206445.0,282465.0,683.0,-954.0,18389.0,9336.0,-7973.0,-3157.0,3649.0
695,342278.0,137051.0,-55414.0,229361.0,303432.0,595746.0,205203.0,278567.0,683.0,-954.0,18389.0,9336.0,-7973.0,-3157.0,3649.0
696,338454.0,137673.0,-54361.0,231111.0,304599.0,597142.0,205450.0,275125.0,683.0,-954.0,18389.0,9336.0,-7973.0,-3157.0,3649.0
697,336896.0,138289.0,-52932.0,232531.0,306388.0,599618.0,204677.0,273231.0,683.0,-954.0,18389.0,9336.0,-7973.0,-3157.0,3649.0
698,338706.0,138021.0,-53675.0,231532.0,305862.0,599187.0,204634.0,277354.0,683.0,-954.0,18389.0,9336.0,-7973.0,-3157.0,3649.0
699,339278.0,137383.0,-55199.0,230409.0,304886.0,598386.0,205421.0,281033.0,683.0,-954.0,18389.0,9336.0,-7973.0,-3157.0,3649.0
700,338210.0,137844.0,-56392.0,229824.0,304538.0,598616.0,206253.0,281716.0,683.0,-954.0,18389.0,9336.0,-7973.0,-3157.0,3649.0
701,338487.0,139491.0,-56672.0,229753.0,305014.0,599325.0,205788.0,280611.0,1803.0,730.0,17424.0,9044.0,-4126.0,-894.0,3649.0
702,337816.0,140222.0,-57831.0,228767.0,304956.0,599641.0,205570.0,280671.0,1803.0,730.0,17424.0,9044.0,-4126.0,-894.0,3649.0
703,337398.0,139924.0,-60667.0,226142.0,303758.0,598988.0,205896.0,280614.0,1803.0,730.0,17424.0,9044.0,-4126.0,-894.0,3649.0
704,335361.0,138727.0,-62540.0,223606.0,302462.0,598448.0,205981.0,280176.0,1803.0,730.0,17424.0,9044.0,-4126.0,-894.0,3649.0
705,332219.0,139687.0,-61262.0,222482.0,301749.0,598408.0,206219.0,280105.0,1803.0,730.0,17424.0,9044.0,-4126.0,-894.0,3649.0
706,330620.0,140422.0,-61074.0,223263.0,301756.0,598599.0,205895.0,279587.0,1803.0,730.0,17424.0,9044.0,-4126.0,-894.0,3649.0
707,328628.0,141774.0,-59242.0,225549.0,302154.0,598597.0,205812.0,278500.0,1803.0,730.0,17424.0,9044.0,-4126.0,-894.0,3649.0
708,324135.0,141798.0,-56982.0,229004.0,303539.0,599042.0,205800.0,278643.0,1803.0,730.0,17424.0,9044.0,-4126.0,-894.0,3649.0
709,320481.0,141584.0,-57736.0,229631.0,304530.0,599979.0,206270.0,278589.0,1803.0,730.0,17424.0,9044.0,-4126.0,-894.0,3649.0
710,316917.0,143214.0,-59932.0,226942.0,304124.0,601107.0,207019.0,276976.0,1803.0,730.0,17424.0,9044.0,-4126.0,-894.0,3649.0
711,313112.0,144241.0,-62746.0,223466.0,303100.0,601492.0,206887.0,276749.0,1865.0,3094.0,16786.0,1192.0,-6790.0,-3505.0,3649.0
712,312786.0,146180.0,-65277.0,219795.0,301428.0,600742.0,206968.0,280697.0,1865.0,3094.0,16786.0,1192.0,-6790.0,-3505.0,3649.0
713,311321.0,145478.0,-68137.0,215382.0,298464.0,598651.0,207880.0,284179.0,1865.0,3094.0,16786.0,1192.0,-6790.0,-3505.0,3649.0
714,307661.0,143265.0,-71191.0,212094.0,296376.0,597201.0,207178.0,282531.0,1865.0,3094.0,16786.0,1192.0,-6790.0,-3505.0,3649.0
715,303791.0,145674.0,-70978.0,215479.0,299386.0,599086.0,205699.0,277780.0,1865.0,3094.0,16786.0,1192.0,-6790.0,-3505.0,3649.0
716,299823.0,150201.0,-68424.0,217561.0,302084.0,601529.0,207854.0,277382.0,1865.0,3094.0,16786.0,1192.0,-6790.0,-3505.0,3649.0
717,301538.0,155452.0,-71067.0,215476.0,302556.0,602567.0,209428.0,281951.0,1865.0,3094.0,16786.0,1192.0,-6790.0,-3505.0,3649.0
718,306904.0,158308.0,-79682.0,208171.0,296685.0,598680.0,208996.0,286328.0,1865.0,3094.0,16786.0,1192.0,-6790.0,-3505.0,3649.0
719,306748.0,161654.0,-79367.0,204407.0,294218.0,597578.0,207264.0,286603.0,1865.0,3094.0,16786.0,1192.0,-6790.0,-3505.0,3649.0
720,302979.0,161589.0,-77065.0,202423.0,294150.0,597104.0,208318.0,285936.0,1865.0,3094.0,16786.0,1192.0,-6790.0,-3505.0,3649.0
721,300469.0,149786.0,-81973.0,200906.0,289317.0,593954.0,211548.0,288158.0,1628.0,3811.0,17611.0,-1224.0,-12357.0,-6837.0,3649.0
722,296688.0,138971.0,-72169.0,210082.0,290874.0,594248.0,208337.0,284640.0,1628.0,3811.0,17611.0,-1224.0,-12357.0,-6837.0,3649.0
723,291611.0,136245.0,-51712.0,227077.0,300438.0,598607.0,205079.0,279044.0,1628.0,3811.0,17611.0,-1224.0,-12357.0,-6837.0,3649.0
724,292056.0,136778.0,-43140.0,238998.0,307218.0,602247.0,201479.0,280478.0,1628.0,3811.0,17611.0,-1224.0,-12357.0,-6837.0,3649.0
725,292460.0,148976.0,-39252.0,244091.0,311756.0,604527.0,202033.0,282322.0,1628.0,3811.0,17611.0,-1224.0,-12357.0,-6837.0,3649.0
726,297741.0,160034.0,-50023.0,234870.0,306478.0,602293.0,206117.0,285121.0,1628.0,3811.0,17611.0,-1224.0,-12357.0,-6837.0,3649.0
727,301909.0,161374.0,-64071.0,222044.0,296728.0,596812.0,207566.0,288513.0,1628.0,3811.0,17611.0,-1224.0,-12357.0,-6837.0,3649.0
728,300551.0,150304.0,-70478.0,214551.0,296503.0,597542.0,205448.0,290221.0,1628.0,3811.0,17611.0,-1224.0,-12357.0,-6837.0,3649.0
729,297993.0,147925.0,-68102.0,211209.0,297472.0,598508.0,206171.0,288876.0,1628.0,3811.0,17611.0,-1224.0,-12357.0,-6837.0,3649.0
730,301173.0,151998.0,-59991.0,212648.0,289498.0,594774.0,207988.0,285849.0,1628.0,3811.0,17611.0,-1224.0,-12357.0,-6837.0,3649.0
731,300163.0,146856.0,-48595.0,224833.0,293906.0,595036.0,208663.0,282257.0,2322.0,3760.0,17032.0,-1707.0,-14946.0,-8508.0,3649.0
732,296184.0,141248.0,-34155.0,234331.0,301643.0,596715.0,205912.0,283052.0,2322.0,3760.0,17032.0,-1707.0,-14946.0,-8508.0,3649.0
733,293396.0,134613.0,-46364.0,232119.0,304031.0,597434.0,205699.0,290667.0,2322.0,3760.0,17032.0,-1707.0,-14946.0,-8508.0,3649.0
734,295101.0,134016.0,-61055.0,224744.0,300694.0,594810.0,204541.0,292666.0,2322.0,3760.0,17032.0,-1707.0,-14946.0,-8508.0,3649.0
735,294709.0,137614.0,-66947.0,222926.0,297321.0,592592.0,205846.0,292284.0,2322.0,3760.0,17032.0,-1707.0,-14946.0,-8508.0,3649.0
736,295526.0,141143.0,-65428.0,224228.0,295499.0,594036.0,208245.0,291619.0,2322.0,3760.0,17032.0,-1707.0,-14946.0,-8508.0,3649.0
737,294766.0,139699.0,-65219.0,223633.0,301449.0,597273.0,206486.0,290894.0,2322.0,3760.0,17032.0,-1707.0,-14946.0,-8508.0,3649.0
738,291042.0,140448.0,-65471.0,223915.0,306682.0,598663.0,203194.0,289934.0,2322.0,3760.0,17032.0,-1707.0,-14946.0,-8508.0,3649.0
739,293681.0,140993.0,-68360.0,216720.0,303763.0,596788.0,202428.0,291674.0,2322.0,3760.0,17032.0,-1707.0,-14946.0,-8508.0,3649.0
740,294677.0,134020.0,-71224.0,214722.0,302669.0,597087.0,204958.0,293516.0,2322.0,3760.0,17032.0,-1707.0,-14946.0,-8508.0,3649.0
741,290996.0,132896.0,-60582.0,216298.0,296244.0,595502.0,206874.0,294096.0,3489.0,3086.0,15726.0,-3015.0,-13213.0,-7753.0,3649.0
742,291372.0,145428.0,-54436.0,216449.0,281786.0,588500.0,205451.0,293356.0,3489.0,3086.0,15726.0,-3015.0,-13213.0,-7753.0,3649.0
743,290945.0,154809.0,-46741.0,225663.0,284653.0,588281.0,203109.0,291731.0,3489.0,3086.0,15726.0,-3015.0,-13213.0,-7753.0,3649.0
744,286948.0,150176.0,-46227.0,229567.0,294187.0,593450.0,204140.0,290616.0,3489.0,3086.0,15726.0,-3015.0,-13213.0,-7753.0,3649.0
745,285044.0,139831.0,-54906.0,226255.0,301035.0,596695.0,205204.0,291252.0,3489.0,3086.0,15726.0,-3015.0,-13213.0,-7753.0,3649.0
746,291985.0,151286.0,-80481.0,206814.0,301940.0,599303.0,204094.0,295126.0,3489.0,3086.0,15726.0,-3015.0,-13213.0,-7753.0,3649.0
747,297153.0,157082.0,-104669.0,187834.0,295674.0,599124.0,206644.0,298848.0,3489.0,3086.0,15726.0,-3015.0,-13213.0,-7753.0,3649.0
748,297819.0,146563.0,-99263.0,183697.0,273013.0,587748.0,206546.0,300346.0,3489.0,3086.0,15726.0,-3015.0,-13213.0,-7753.0,3649.0
749,290909.0,136485.0,-61333.0,208928.0,265309.0,581877.0,198421.0,298654.0,3489.0,3086.0,15726.0,-3015.0,-13213.0,-7753.0,3649.0
750,284529.0,137921.0,-30776.0,238033.0,288258.0,588811.0,196306.0,293176.0,3489.0,3086.0,15726.0,-3015.0,-13213.0,-7753.0,3649.0
751,284090.0,142813.0,-34744.0,242783.0,305295.0,593719.0,203974.0,290958.0,3326.0,770.0,15971.0,3391.0,-20438.0,-4926.0,3649.0
752,282562.0,141126.0,-39928.0,242757.0,309538.0,598064.0,205786.0,291655.0,3326.0,770.0,15971.0,3391.0,-20438.0,-4926.0,3649.0
753,281209.0,144779.0,-45091.0,238566.0,311739.0,601828.0,204251.0,290526.0,3326.0,770.0,15971.0,3391.0,-20438.0,-4926.0,3649.0
754,285705.0,147408.0,-57316.0,229371.0,305510.0,600482.0,204848.0,293319.0,3326.0,770.0,15971.0,3391.0,-20438.0,-4926.0,3649.0
755,292464.0,144755.0,-78802.0,210411.0,295553.0,598759.0,208702.0,300401.0,3326.0,770.0,15971.0,3391.0,-20438.0,-4926.0,3649.0
756,287668.0,133880.0,-93617.0,193891.0,286567.0,593279.0,212498.0,301654.0,3326.0,770.0,15971.0,3391.0,-20438.0,-4926.0,3649.0
757,281686.0,136065.0,-83924.0,195909.0,274974.0,584260.0,211247.0,297983.0,3326.0,770.0,15971.0,3391.0,-20438.0,-4926.0,3649.0
758,283249.0,146215.0,-60566.0,214896.0,270417.0,583783.0,207027.0,297923.0,3326.0,770.0,15971.0,3391.0,-20438.0,-4926.0,3649.0
759,285016.0,147765.0,-35872.0,239071.0,302864.0,598201.0,201133.0,293848.0,3326.0,770.0,15971.0,3391.0,-20438.0,-4926.0,3649.0
760,281084.0,145466.0,-38144.0,244276.0,312721.0,603875.0,202541.0,290241.0,3326.0,770.0,15971.0,3391.0,-20438.0,-4926.0,3649.0
761,284231.0,153233.0,-48713.0,239740.0,308724.0,601873.0,202872.0,289404.0,-667.0,962.0,20719.0,4298.0,-31251.0,-7348.0,3649.0
762,286508.0,150449.0,-47686.0,241136.0,314921.0,603307.0,201583.0,289409.0,-667.0,962.0,20719.0,4298.0,-31251.0,-7348.0,3649.0
763,282085.0,136262.0,-42112.0,240898.0,313483.0,604113.0,204809.0,289201.0,-667.0,962.0,20719.0,4298.0,-31251.0,-7348.0,3649.0
764,282163.0,141284.0,-50774.0,233016.0,306761.0,601133.0,205403.0,290956.0,-667.0,962.0,20719.0,4298.0,-31251.0,-7348.0,3649.0
765,287856.0,151579.0,-70032.0,218964.0,296962.0,597156.0,205581.0,294839.0,-667.0,962.0,20719.0,4298.0,-31251.0,-7348.0,3649.0
766,294506.0,155569.0,-68861.0,216123.0,285704.0,592504.0,205908.0,297031.0,-667.0,962.0,20719.0,4298.0,-31251.0,-7348.0,3649.0
767,292644.0,145160.0,-49947.0,229042.0,283767.0,592814.0,203303.0,296456.0,-667.0,962.0,20719.0,4298.0,-31251.0,-7348.0,3649.0
768,286880.0,137517.0,-38734.0,240794.0,299891.0,600859.0,203214.0,295041.0,-667.0,962.0,20719.0,4298.0,-31251.0,-7348.0,3649.0
769,292453.0,140726.0,-51010.0,233287.0,300208.0,601561.0,207521.0,297422.0,-667.0,962.0,20719.0,4298.0,-31251.0,-7348.0,3649.0
770,297506.0,141841.0,-61269.0,225951.0,292507.0,597124.0,208016.0,298291.0,-667.0,962.0,20719.0,4298.0,-31251.0,-7348.0,3649.0
771,301993.0,144617.0,-64813.0,218494.0,287322.0,594994.0,204640.0,298746.0,-1877.0,4212.0,18953.0,-11453.0,-23505.0,-8446.0,3649.0
772,309742.0,156851.0,-65767.0,213711.0,273968.0,588973.0,201455.0,298651.0,-1877.0,4212.0,18953.0,-11453.0,-23505.0,-8446.0,3649.0
773,317450.0,158260.0,-67011.0,214217.0,270669.0,587793.0,199864.0,294888.0,-1877.0,4212.0,18953.0,-11453.0,-23505.0,-8446.0,3649.0
774,312563.0,143923.0,-57580.0,225906.0,289120.0,594181.0,196052.0,284039.0,-1877.0,4212.0,18953.0,-11453.0,-23505.0,-8446.0,3649.0
775,309379.0,148761.0,-51811.0,233263.0,297045.0,596691.0,190909.0,276426.0,-1877.0,4212.0,18953.0,-11453.0,-23505.0,-8446.0,3649.0
776,314957.0,154124.0,-55650.0,233369.0,296416.0,597261.0,187199.0,274071.0,-1877.0,4212.0,18953.0,-11453.0,-23505.0,-8446.0,3649.0
777,321231.0,152548.0,-53038.0,231772.0,296666.0,599166.0,185634.0,270509.0,-1877.0,4212.0,18953.0,-11453.0,-23505.0,-8446.0,3649.0
778,319838.0,146579.0,-53990.0,230805.0,298569.0,601616.0,186646.0,266257.0,-1877.0,4212.0,18953.0,-11453.0,-23505.0,-8446.0,3649.0
779,323478.0,152318.0,-57949.0,225453.0,293516.0,597962.0,186423.0,268308.0,-1877.0,4212.0,18953.0,-11453.0,-23505.0,-8446.0,3649.0
780,329974.0,162794.0,-65156.0,213538.0,283543.0,591345.0,186654.0,272665.0,-1877.0,4212.0,18953.0,-11453.0,-23505.0,-8446.0,3649.0
781,329614.0,154348.0,-61968.0,216478.0,283604.0,592339.0,185890.0,274337.0,7869.0,5030.0,10698.0,4665.0,-13738.0,1023.0,3649.0
782,318387.0,136399.0,-48182.0,232602.0,294326.0,595708.0,184255.0,273529.0,7869.0,5030.0,10698.0,4665.0,-13738.0,1023.0,3649.0
783,310103.0,142389.0,-37720.0,236402.0,297731.0,597273.0,185340.0,272636.0,7869.0,5030.0,10698.0,4665.0,-13738.0,1023.0,3649.0
784,310330.0,153387.0,-50118.0,232012.0,286604.0,593726.0,188614.0,276677.0,7869.0,5030.0,10698.0,4665.0,-13738.0,1023.0,3649.0
785,308007.0,153069.0,-55468.0,230864.0,291906.0,594956.0,187894.0,279069.0,7869.0,5030.0,10698.0,4665.0,-13738.0,1023.0,3649.0
786,304127.0,145800.0,-47431.0,235946.0,296781.0,597655.0,187248.0,279109.0,7869.0,5030.0,10698.0,4665.0,-13738.0,1023.0,3649.0
787,300043.0,146256.0,-47811.0,236718.0,298026.0,601191.0,189075.0,279771.0,7869.0,5030.0,10698.0,4665.0,-13738.0,1023.0,3649.0
788,300556.0,153284.0,-57401.0,227398.0,294873.0,600893.0,191833.0,282679.0,7869.0,5030.0,10698.0,4665.0,-13738.0,1023.0,3649.0
789,304184.0,159478.0,-63128.0,220357.0,287466.0,598473.0,195131.0,285274.0,7869.0,5030.0,10698.0,4665.0,-13738.0,1023.0,3649.0
790,304279.0,154373.0,-63564.0,221878.0,288803.0,600407.0,196715.0,287076.0,7869.0,5030.0,10698.0,4665.0,-13738.0,1023.0,3649.0
791,300353.0,152838.0,-61719.0,224208.0,295981.0,604345.0,197598.0,288793.0,14176.0,6727.0,10025.0,-4358.0,-873.0,-633.0,3649.0
792,297906.0,154239.0,-62020.0,223988.0,296516.0,604665.0,200129.0,291899.0,14176.0,6727.0,10025.0,-4358.0,-873.0,-633.0,3649.0
793,297737.0,149436.0,-54294.0,226160.0,289661.0,601936.0,203247.0,294563.0,14176.0,6727.0,10025.0,-4358.0,-873.0,-633.0,3649.0
794,293288.0,142386.0,-49614.0,230759.0,289664.0,603444.0,204756.0,294503.0,14176.0,6727.0,10025.0,-4358.0,-873.0,-633.0,3649.0
795,291837.0,143987.0,-55161.0,229279.0,291506.0,605106.0,206551.0,297298.0,14176.0,6727.0,10025.0,-4358.0,-873.0,-633.0,3649.0
796,293128.0,148798.0,-60401.0,227528.0,292484.0,601978.0,206906.0,299120.0,14176.0,6727.0,10025.0,-4358.0,-873.0,-633.0,3649.0
797,291196.0,153489.0,-61077.0,229986.0,295371.0,602249.0,204421.0,296906.0,14176.0,6727.0,10025.0,-4358.0,-873.0,-633.0,3649.0
798,286888.0,147757.0,-58271.0,234814.0,298807.0,605089.0,202903.0,294638.0,14176.0,6727.0,10025.0,-4358.0,-873.0,-633.0,3649.0
799,288873.0,151243.0,-61917.0,230009.0,293343.0,602783.0,204033.0,295156.0,14176.0,6727.0,10025.0,-4358.0,-873.0,-633.0,3649.0
800,290929.0,151816.0,-66654.0,226119.0,291123.0,603246.0,205449.0,296336.0,14176.0,6727.0,10025.0,-4358.0,-873.0,-633.0,3649.0
801,289129.0,147773.0,-55909.0,229539.0,294406.0,605556.0,202729.0,298451.0,9338.0,5697.0,10231.0,-5110.0,-2183.0,2225.0,3649.0
802,288371.0,147315.0,-51064.0,232788.0,295466.0,605801.0,200848.0,297290.0,9338.0,5697.0,10231.0,-5110.0,-2183.0,2225.0,3649.0
803,284286.0,144871.0,-50486.0,232284.0,295490.0,605848.0,202956.0,294529.0,9338.0,5697.0,10231.0,-5110.0,-2183.0,2225.0,3649.0
804,284980.0,147661.0,-56954.0,230055.0,293767.0,603789.0,203070.0,295472.0,9338.0,5697.0,10231.0,-5110.0,-2183.0,2225.0,3649.0
805,288668.0,145814.0,-61064.0,228719.0,292988.0,603045.0,202389.0,297989.0,9338.0,5697.0,10231.0,-5110.0,-2183.0,2225.0,3649.0
806,288212.0,141833.0,-64201.0,223374.0,290623.0,603487.0,204969.0,297139.0,9338.0,5697.0,10231.0,-5110.0,-2183.0,2225.0,3649.0
807,288894.0,150610.0,-64406.0,220753.0,287698.0,602292.0,204474.0,294936.0,9338.0,5697.0,10231.0,-5110.0,-2183.0,2225.0,3649.0
808,291586.0,154751.0,-58878.0,225523.0,285744.0,599944.0,202553.0,295321.0,9338.0,5697.0,10231.0,-5110.0,-2183.0,2225.0,3649.0
809,288073.0,148775.0,-44609.0,235846.0,291461.0,602211.0,200963.0,293422.0,9338.0,5697.0,10231.0,-5110.0,-2183.0,2225.0,3649.0
810,284611.0,149123.0,-43689.0,239307.0,299121.0,606610.0,200320.0,292523.0,9338.0,5697.0,10231.0,-5110.0,-2183.0,2225.0,3649.0
811,286975.0,154449.0,-55108.0,231719.0,297013.0,606546.0,202435.0,294788.0,7465.0,3179.0,10126.0,232.0,-3331.0,-131.0,3649.0
812,288484.0,154888.0,-58382.0,223715.0,291536.0,603159.0,203590.0,295408.0,7465.0,3179.0,10126.0,232.0,-3331.0,-131.0,3649.0
813,287481.0,146476.0,-59367.0,223090.0,291087.0,602357.0,204482.0,295769.0,7465.0,3179.0,10126.0,232.0,-3331.0,-131.0,3649.0
814,284747.0,144413.0,-63924.0,226627.0,293271.0,604343.0,204593.0,295273.0,7465.0,3179.0,10126.0,232.0,-3331.0,-131.0,3649.0
815,286088.0,150711.0,-62724.0,225046.0,289252.0,603001.0,203617.0,295732.0,7465.0,3179.0,10126.0,232.0,-3331.0,-131.0,3649.0
816,288342.0,157372.0,-67304.0,222927.0,290124.0,602971.0,202881.0,295714.0,7465.0,3179.0,10126.0,232.0,-3331.0,-131.0,3649.0
817,291157.0,164433.0,-65740.0,225028.0,286257.0,600621.0,202432.0,295104.0,7465.0,3179.0,10126.0,232.0,-3331.0,-131.0,3649.0
818,288240.0,149735.0,-57414.0,229237.0,287593.0,599964.0,203173.0,294870.0,7465.0,3179.0,10126.0,232.0,-3331.0,-131.0,3649.0
819,279564.0,138796.0,-50815.0,233274.0,298478.0,604804.0,203350.0,292840.0,7465.0,3179.0,10126.0,232.0,-3331.0,-131.0,3649.0
820,281449.0,146874.0,-48542.0,233301.0,290185.0,603878.0,203179.0,293686.0,7465.0,3179.0,10126.0,232.0,-3331.0,-131.0,3649.0
821,280831.0,148451.0,-48466.0,236378.0,295704.0,608112.0,201768.0,292933.0,9955.0,2776.0,10267.0,2056.0,-731.0,2084.0,3649.0
822,280683.0,149652.0,-54861.0,235786.0,302548.0,610836.0,201238.0,293205.0,9955.0,2776.0,10267.0,2056.0,-731.0,2084.0,3649.0
823,282821.0,156754.0,-62404.0,229021.0,297828.0,607401.0,202519.0,295241.0,9955.0,2776.0,10267.0,2056.0,-731.0,2084.0,3649.0
824,284662.0,157955.0,-66507.0,224203.0,293208.0,605624.0,202978.0,295886.0,9955.0,2776.0,10267.0,2056.0,-731.0,2084.0,3649.0
825,284377.0,151646.0,-59055.0,227143.0,290706.0,606042.0,202079.0,295726.0,9955.0,2776.0,10267.0,2056.0,-731.0,2084.0,3649.0
826,283134.0,147514.0,-54131.0,231305.0,295114.0,606381.0,200538.0,295343.0,9955.0,2776.0,10267.0,2056.0,-731.0,2084.0,3649.0
827,280900.0,148939.0,-52070.0,234381.0,299125.0,608263.0,199353.0,293319.0,9955.0,2776.0,10267.0,2056.0,-731.0,2084.0,3649.0
828,280228.0,155008.0,-59001.0,230301.0,294780.0,607814.0,202179.0,293256.0,9955.0,2776.0,10267.0,2056.0,-731.0,2084.0,3649.0
829,282324.0,161459.0,-68194.0,223003.0,291775.0,605679.0,203691.0,294244.0,9955.0,2776.0,10267.0,2056.0,-731.0,2084.0,3649.0
830,284227.0,160215.0,-67562.0,221725.0,289098.0,604034.0,203751.0,297600.0,9955.0,2776.0,10267.0,2056.0,-731.0,2084.0,3649.0
831,281003.0,146857.0,-54336.0,229352.0,291714.0,606096.0,203007.0,296039.0,10213.0,2865.0,10887.0,2385.0,-797.0,906.0,3649.0
832,276028.0,141344.0,-46189.0,236449.0,295231.0,608356.0,202499.0,294927.0,10213.0,2865.0,10887.0,2385.0,-797.0,906.0,3649.0
833,277708.0,151681.0,-52354.0,234435.0,295261.0,607431.0,201829.0,295065.0,10213.0,2865.0,10887.0,2385.0,-797.0,906.0,3649.0
834,280199.0,159638.0,-61484.0,229140.0,297343.0,607429.0,201359.0,294168.0,10213.0,2865.0,10887.0,2385.0,-797.0,906.0,3649.0
835,279389.0,152531.0,-55571.0,230884.0,295728.0,606917.0,201935.0,293557.0,10213.0,2865.0,10887.0,2385.0,-797.0,906.0,3649.0
836,274058.0,144054.0,-47156.0,234465.0,295953.0,608101.0,202605.0,292912.0,10213.0,2865.0,10887.0,2385.0,-797.0,906.0,3649.0
837,274980.0,147321.0,-54814.0,228419.0,289269.0,605769.0,204028.0,295550.0,10213.0,2865.0,10887.0,2385.0,-797.0,906.0,3649.0
838,278483.0,152860.0,-60774.0,227318.0,289250.0,604859.0,204032.0,297782.0,10213.0,2865.0,10887.0,2385.0,-797.0,906.0,3649.0
839,278741.0,152117.0,-66274.0,227916.0,295773.0,605984.0,203211.0,297128.0,10213.0,2865.0,10887.0,2385.0,-797.0,906.0,3649.0
840,278384.0,153533.0,-60399.0,226736.0,294132.0,605686.0,201706.0,296543.0,10213.0,2865.0,10887.0,2385.0,-797.0,906.0,3649.0
841,275899.0,150904.0,-51942.0,231419.0,292850.0,606179.0,201869.0,296701.0,8950.0,2935.0,11752.0,2487.0,-1854.0,921.0,3649.0
842,273436.0,147838.0,-52493.0,236356.0,298484.0,607664.0,202188.0,294846.0,8950.0,2935.0,11752.0,2487.0,-1854.0,921.0,3649.0
843,274713.0,150099.0,-54969.0,233807.0,298081.0,607784.0,202157.0,294989.0,8950.0,2935.0,11752.0,2487.0,-1854.0,921.0,3649.0
844,276492.0,151604.0,-57066.0,232076.0,296123.0,607224.0,201679.0,294553.0,8950.0,2935.0,11752.0,2487.0,-1854.0,921.0,3649.0
845,276756.0,152544.0,-56729.0,230085.0,292619.0,605935.0,201331.0,294088.0,8950.0,2935.0,11752.0,2487.0,-1854.0,921.0,3649.0
846,275423.0,153315.0,-60539.0,227991.0,291394.0,605671.0,202571.0,294173.0,8950.0,2935.0,11752.0,2487.0,-1854.0,921.0,3649.0
847,274738.0,153903.0,-62030.0,226651.0,292145.0,606743.0,203573.0,295031.0,8950.0,2935.0,11752.0,2487.0,-1854.0,921.0,3649.0
848,274563.0,152285.0,-57551.0,228588.0,293911.0,606293.0,202172.0,295615.0,8950.0,2935.0,11752.0,2487.0,-1854.0,921.0,3649.0
849,273232.0,150864.0,-54404.0,235708.0,299759.0,608447.0,200886.0,294997.0,8950.0,2935.0,11752.0,2487.0,-1854.0,921.0,3649.0
850,274014.0,152700.0,-54417.0,234534.0,297796.0,607757.0,202020.0,295354.0,8950.0,2935.0,11752.0,2487.0,-1854.0,921.0,3649.0
851,275223.0,154611.0,-56121.0,231653.0,295563.0,605968.0,202689.0,295783.0,8774.0,2916.0,12489.0,2998.0,-2337.0,795.0,3649.0
852,276010.0,156247.0,-60613.0,230420.0,294804.0,605809.0,201691.0,296461.0,8774.0,2916.0,12489.0,2998.0,-2337.0,795.0,3649.0
853,274657.0,150554.0,-61092.0,231149.0,295119.0,606627.0,202086.0,296372.0,8774.0,2916.0,12489.0,2998.0,-2337.0,795.0,3649.0
854,271888.0,149317.0,-55668.0,231574.0,294513.0,605515.0,202708.0,295733.0,8774.0,2916.0,12489.0,2998.0,-2337.0,795.0,3649.0
855,271212.0,150599.0,-54961.0,229628.0,291214.0,604064.0,203797.0,296013.0,8774.0,2916.0,12489.0,2998.0,-2337.0,795.0,3649.0
856,271556.0,152922.0,-55222.0,230472.0,293054.0,604949.0,202762.0,295623.0,8774.0,2916.0,12489.0,2998.0,-2337.0,795.0,3649.0
857,271979.0,152808.0,-57326.0,229327.0,293881.0,607254.0,202723.0,295483.0,8774.0,2916.0,12489.0,2998.0,-2337.0,795.0,3649.0
858,272611.0,154056.0,-56312.0,230094.0,290733.0,606837.0,202619.0,295955.0,8774.0,2916.0,12489.0,2998.0,-2337.0,795.0,3649.0
859,272418.0,154990.0,-55681.0,232519.0,294743.0,606838.0,201902.0,295303.0,8774.0,2916.0,12489.0,2998.0,-2337.0,795.0,3649.0
860,271373.0,154189.0,-59442.0,232648.0,299310.0,608558.0,201773.0,294486.0,8774.0,2916.0,12489.0,2998.0,-2337.0,795.0,3649.0
861,272106.0,157151.0,-62065.0,230748.0,296553.0,607561.0,202019.0,294546.0,8866.0,3108.0,12919.0,3315.0,-1805.0,725.0,3649.0
862,271856.0,154362.0,-59533.0,229903.0,295083.0,607203.0,202566.0,295504.0,8866.0,3108.0,12919.0,3315.0,-1805.0,725.0,3649.0
863,270283.0,150320.0,-54452.0,233192.0,296701.0,607564.0,202344.0,295229.0,8866.0,3108.0,12919.0,3315.0,-1805.0,725.0,3649.0
864,269861.0,151746.0,-54104.0,234349.0,297012.0,608027.0,202110.0,295329.0,8866.0,3108.0,12919.0,3315.0,-1805.0,725.0,3649.0
865,270516.0,153714.0,-55549.0,232689.0,295462.0,607292.0,201381.0,296063.0,8866.0,3108.0,12919.0,3315.0,-1805.0,725.0,3649.0
866,272196.0,157635.0,-58682.0,230335.0,293107.0,606913.0,199865.0,297158.0,8866.0,3108.0,12919.0,3315.0,-1805.0,725.0,3649.0
867,274392.0,161797.0,-61197.0,227367.0,290475.0,605893.0,200161.0,298436.0,8866.0,3108.0,12919.0,3315.0,-1805.0,725.0,3649.0
868,272790.0,156414.0,-60005.0,227404.0,290656.0,604721.0,203062.0,297687.0,8866.0,3108.0,12919.0,3315.0,-1805.0,725.0,3649.0
869,269099.0,151036.0,-57054.0,231341.0,296474.0,605727.0,204196.0,295863.0,8866.0,3108.0,12919.0,3315.0,-1805.0,725.0,3649.0
870,269384.0,154448.0,-59143.0,230841.0,296865.0,607288.0,202933.0,295708.0,8866.0,3108.0,12919.0,3315.0,-1805.0,725.0,3649.0
871,269464.0,152179.0,-63063.0,228841.0,295964.0,606921.0,202959.0,296229.0,8506.0,3445.0,13231.0,3363.0,-1987.0,537.0,3649.0
872,268723.0,149561.0,-61126.0,230253.0,295371.0,606679.0,202824.0,296382.0,8506.0,3445.0,13231.0,3363.0,-1987.0,537.0,3649.0
873,268348.0,150514.0,-55871.0,232537.0,294305.0,606913.0,202313.0,296007.0,8506.0,3445.0,13231.0,3363.0,-1987.0,537.0,3649.0
874,267925.0,155656.0,-57456.0,231348.0,295815.0,606480.0,202408.0,295050.0,8506.0,3445.0,13231.0,3363.0,-1987.0,537.0,3649.0
875,267889.0,156133.0,-61847.0,227968.0,294578.0,606219.0,203384.0,294940.0,8506.0,3445.0,13231.0,3363.0,-1987.0,537.0,3649.0
876,267064.0,148726.0,-58195.0,231211.0,295978.0,607861.0,203678.0,295168.0,8506.0,3445.0,13231.0,3363.0,-1987.0,537.0,3649.0
877,265761.0,150329.0,-51703.0,235103.0,296082.0,607219.0,202457.0,294320.0,8506.0,3445.0,13231.0,3363.0,-1987.0,537.0,3649.0
878,266154.0,152574.0,-54264.0,233545.0,295956.0,606864.0,202032.0,294110.0,8506.0,3445.0,13231.0,3363.0,-1987.0,537.0,3649.0
879,266276.0,153191.0,-54841.0,233418.0,296164.0,607601.0,202551.0,294524.0,8506.0,3445.0,13231.0,3363.0,-1987.0,537.0,3649.0
880,267183.0,153609.0,-56682.0,232289.0,295499.0,607558.0,202833.0,295138.0,8506.0,3445.0,13231.0,3363.0,-1987.0,537.0,3649.0
881,267691.0,153364.0,-56739.0,232673.0,296047.0,607487.0,202211.0,294848.0,8290.0,3756.0,13401.0,2481.0,-2185.0,339.0,3649.0
882,267383.0,152466.0,-57828.0,231948.0,295436.0,607349.0,202133.0,295017.0,8290.0,3756.0,13401.0,2481.0,-2185.0,339.0,3649.0
883,267811.0,157129.0,-62734.0,227993.0,294393.0,606509.0,202396.0,295932.0,8290.0,3756.0,13401.0,2481.0,-2185.0,339.0,3649.0
884,269326.0,160007.0,-65459.0,224311.0,289254.0,604414.0,203775.0,296348.0,8290.0,3756.0,13401.0,2481.0,-2185.0,339.0,3649.0
885,267571.0,152553.0,-57957.0,229730.0,289533.0,604754.0,203978.0,294144.0,8290.0,3756.0,13401.0,2481.0,-2185.0,339.0,3649.0
886,263656.0,147508.0,-51012.0,237346.0,300216.0,609151.0,202329.0,291658.0,8290.0,3756.0,13401.0,2481.0,-2185.0,339.0,3649.0
887,263948.0,149526.0,-52938.0,236310.0,299552.0,608739.0,202628.0,292428.0,8290.0,3756.0,13401.0,2481.0,-2185.0,339.0,3649.0
888,265361.0,151746.0,-55351.0,234198.0,297576.0,607586.0,202498.0,293469.0,8290.0,3756.0,13401.0,2481.0,-2185.0,339.0,3649.0
889,265501.0,152720.0,-56212.0,233958.0,298510.0,608061.0,202303.0,293294.0,8290.0,3756.0,13401.0,2481.0,-2185.0,339.0,3649.0
890,265659.0,153534.0,-56831.0,233480.0,297606.0,607571.0,202591.0,292481.0,8290.0,3756.0,13401.0,2481.0,-2185.0,339.0,3649.0
891,265364.0,152854.0,-58107.0,232145.0,296623.0,607550.0,203307.0,292145.0,8369.0,4267.0,13977.0,1265.0,-1462.0,867.0,3649.0
892,265076.0,153433.0,-58515.0,230019.0,294298.0,606895.0,203311.0,291451.0,8369.0,4267.0,13977.0,1265.0,-1462.0,867.0,3649.0
893,264433.0,152184.0,-57922.0,231132.0,294724.0,607136.0,203252.0,290883.0,8369.0,4267.0,13977.0,1265.0,-1462.0,867.0,3649.0
894,264161.0,150986.0,-56752.0,232496.0,295284.0,606536.0,202866.0,290774.0,8369.0,4267.0,13977.0,1265.0,-1462.0,867.0,3649.0
895,264379.0,153326.0,-55857.0,232584.0,293166.0,605808.0,203218.0,290696.0,8369.0,4267.0,13977.0,1265.0,-1462.0,867.0,3649.0
896,263608.0,153848.0,-56571.0,232332.0,296667.0,608204.0,202939.0,289479.0,8369.0,4267.0,13977.0,1265.0,-1462.0,867.0,3649.0
897,263179.0,153626.0,-56948.0,232973.0,299087.0,609038.0,202731.0,288633.0,8369.0,4267.0,13977.0,1265.0,-1462.0,867.0,3649.0
898,263565.0,152814.0,-59618.0,232191.0,296964.0,607794.0,203474.0,288145.0,8369.0,4267.0,13977.0,1265.0,-1462.0,867.0,3649.0
899,264341.0,155287.0,-57946.0,232017.0,294884.0,607311.0,202194.0,288392.0,8369.0,4267.0,13977.0,1265.0,-1462.0,867.0,3649.0
900,265119.0,154818.0,-58015.0,232842.0,296594.0,608223.0,201108.0,288477.0,8369.0,4267.0,13977.0,1265.0,-1462.0,867.0,3649.0
901,263411.0,151609.0,-58490.0,233918.0,298684.0,609044.0,202903.0,287374.0,8695.0,4608.0,14842.0,407.0,-228.0,810.0,3649.0
902,262061.0,151339.0,-57826.0,232464.0,296060.0,607651.0,204034.0,286719.0,8695.0,4608.0,14842.0,407.0,-228.0,810.0,3649.0
903,262863.0,155628.0,-59896.0,231211.0,295666.0,607051.0,203524.0,287124.0,8695.0,4608.0,14842.0,407.0,-228.0,810.0,3649.0
904,263699.0,155184.0,-63529.0,229813.0,295384.0,606893.0,203351.0,287521.0,8695.0,4608.0,14842.0,407.0,-228.0,810.0,3649.0
905,261813.0,148826.0,-59037.0,232543.0,296999.0,607998.0,203291.0,286653.0,8695.0,4608.0,14842.0,407.0,-228.0,810.0,3649.0
906,260458.0,149113.0,-53239.0,234741.0,297583.0,608401.0,202719.0,285701.0,8695.0,4608.0,14842.0,407.0,-228.0,810.0,3649.0
907,260982.0,151386.0,-55206.0,233026.0,296666.0,608116.0,203059.0,286225.0,8695.0,4608.0,14842.0,407.0,-228.0,810.0,3649.0
908,261470.0,151669.0,-59122.0,231414.0,296872.0,608076.0,203162.0,286273.0,8695.0,4608.0,14842.0,407.0,-228.0,810.0,3649.0
909,261744.0,152270.0,-59398.0,230024.0,294088.0,607060.0,203171.0,285973.0,8695.0,4608.0,14842.0,407.0,-228.0,810.0,3649.0
910,261943.0,153111.0,-57579.0,231821.0,293428.0,607004.0,202310.0,285524.0,8695.0,4608.0,14842.0,407.0,-228.0,810.0,3649.0
911,262003.0,153461.0,-55650.0,234059.0,298542.0,608413.0,201536.0,284899.0,8691.0,4394.0,14889.0,-3.0,549.0,446.0,3649.0
912,261840.0,152204.0,-55654.0,234416.0,299067.0,609008.0,202298.0,285171.0,8691.0,4394.0,14889.0,-3.0,549.0,446.0,3649.0
913,261304.0,152333.0,-56387.0,233746.0,296949.0,608520.0,202891.0,285267.0,8691.0,4394.0,14889.0,-3.0,549.0,446.0,3649.0
914,262014.0,155513.0,-57599.0,233043.0,297037.0,608023.0,201179.0,284828.0,8691.0,4394.0,14889.0,-3.0,549.0,446.0,3649.0
915,262659.0,156671.0,-58919.0,231133.0,297591.0,608838.0,200423.0,285143.0,8691.0,4394.0,14889.0,-3.0,549.0,446.0,3649.0
916,263557.0,158766.0,-61359.0,228339.0,292742.0,607318.0,202073.0,285891.0,8691.0,4394.0,14889.0,-3.0,549.0,446.0,3649.0
917,261580.0,154549.0,-62835.0,229063.0,292405.0,606959.0,204665.0,285187.0,8691.0,4394.0,14889.0,-3.0,549.0,446.0,3649.0
918,258550.0,146314.0,-57832.0,234626.0,298862.0,608968.0,204068.0,283903.0,8691.0,4394.0,14889.0,-3.0,549.0,446.0,3649.0
919,258029.0,145709.0,-54752.0,236278.0,300881.0,610158.0,202824.0,283513.0,8691.0,4394.0,14889.0,-3.0,549.0,446.0,3649.0
920,258866.0,149409.0,-53983.0,236341.0,299716.0,609777.0,202076.0,283598.0,8691.0,4394.0,14889.0,-3.0,549.0,446.0,3649.0
921,259207.0,150474.0,-54197.0,235898.0,299233.0,609569.0,201944.0,283663.0,7967.0,4282.0,14405.0,-233.0,-423.0,850.0,3649.0
922,259490.0,151198.0,-56144.0,234626.0,298412.0,609256.0,202481.0,284124.0,7967.0,4282.0,14405.0,-233.0,-423.0,850.0,3649.0
923,260445.0,153729.0,-57572.0,233494.0,297543.0,608799.0,202778.0,284377.0,7967.0,4282.0,14405.0,-233.0,-423.0,850.0,3649.0
924,260646.0,154487.0,-58193.0,232823.0,297111.0,608676.0,202879.0,284016.0,7967.0,4282.0,14405.0,-233.0,-423.0,850.0,3649.0
925,259776.0,151154.0,-57918.0,233334.0,297521.0,608733.0,202232.0,283075.0,7967.0,4282.0,14405.0,-233.0,-423.0,850.0,3649.0
926,258876.0,149499.0,-56557.0,234688.0,298655.0,609694.0,202288.0,281383.0,7967.0,4282.0,14405.0,-233.0,-423.0,850.0,3649.0
927,258191.0,150306.0,-56108.0,234377.0,298059.0,609338.0,202512.0,281249.0,7967.0,4282.0,14405.0,-233.0,-423.0,850.0,3649.0
928,258736.0,151271.0,-56021.0,234367.0,297980.0,609294.0,203150.0,283360.0,7967.0,4282.0,14405.0,-233.0,-423.0,850.0,3649.0
929,259144.0,151107.0,-56729.0,234126.0,298063.0,609278.0,203239.0,284386.0,7967.0,4282.0,14405.0,-233.0,-423.0,850.0,3649.0
930,259374.0,151281.0,-57142.0,234183.0,298586.0,609876.0,202983.0,284224.0,7967.0,4282.0,14405.0,-233.0,-423.0,850.0,3649.0
931,259601.0,152254.0,-57090.0,234112.0,298548.0,610393.0,202445.0,283776.0,7489.0,4279.0,14037.0,225.0,-1175.0,229.0,3649.0
932,260084.0,153096.0,-57304.0,234181.0,298548.0,610510.0,201529.0,283562.0,7489.0,4279.0,14037.0,225.0,-1175.0,229.0,3649.0
933,259797.0,153214.0,-56849.0,234721.0,298696.0,610208.0,201537.0,283416.0,7489.0,4279.0,14037.0,225.0,-1175.0,229.0,3649.0
934,259022.0,153534.0,-56364.0,234030.0,298136.0,609683.0,203151.0,283273.0,7489.0,4279.0,14037.0,225.0,-1175.0,229.0,3649.0
935,259055.0,154622.0,-57119.0,233008.0,296452.0,609020.0,204433.0,283685.0,7489.0,4279.0,14037.0,225.0,-1175.0,229.0,3649.0
936,258530.0,152259.0,-58254.0,232390.0,296062.0,608273.0,204009.0,283264.0,7489.0,4279.0,14037.0,225.0,-1175.0,229.0,3649.0
937,256911.0,148798.0,-57846.0,233158.0,297477.0,608973.0,203631.0,282454.0,7489.0,4279.0,14037.0,225.0,-1175.0,229.0,3649.0
938,256526.0,150254.0,-56426.0,234746.0,298895.0,609884.0,203746.0,282197.0,7489.0,4279.0,14037.0,225.0,-1175.0,229.0,3649.0
939,257068.0,150941.0,-56041.0,234881.0,300148.0,610708.0,203603.0,281904.0,7489.0,4279.0,14037.0,225.0,-1175.0,229.0,3649.0
940,256992.0,150531.0,-56464.0,234526.0,299122.0,610417.0,203283.0,281541.0,7489.0,4279.0,14037.0,225.0,-1175.0,229.0,3649.0
941,256637.0,150633.0,-56936.0,234978.0,298796.0,610230.0,202999.0,281343.0,7597.0,4426.0,13608.0,-116.0,-1341.0,267.0,3649.0
942,256240.0,150558.0,-57088.0,234828.0,299181.0,610339.0,203199.0,281148.0,7597.0,4426.0,13608.0,-116.0,-1341.0,267.0,3649.0
943,256210.0,150796.0,-57276.0,234474.0,298938.0,610327.0,203467.0,281344.0,7597.0,4426.0,13608.0,-116.0,-1341.0,267.0,3649.0
944,256001.0,150723.0,-57889.0,233863.0,298399.0,610132.0,203429.0,281026.0,7597.0,4426.0,13608.0,-116.0,-1341.0,267.0,3649.0
945,255676.0,150417.0,-58729.0,233802.0,298764.0,610423.0,203438.0,280719.0,7597.0,4426.0,13608.0,-116.0,-1341.0,267.0,3649.0
946,255713.0,150628.0,-59401.0,233440.0,299329.0,610588.0,203231.0,280709.0,7597.0,4426.0,13608.0,-116.0,-1341.0,267.0,3649.0
947,255834.0,151496.0,-58185.0,232273.0,295641.0,609406.0,203009.0,280773.0,7597.0,4426.0,13608.0,-116.0,-1341.0,267.0,3649.0
948,255677.0,152848.0,-56649.0,233077.0,293401.0,608447.0,203003.0,280596.0,7597.0,4426.0,13608.0,-116.0,-1341.0,267.0,3649.0
949,254641.0,151319.0,-55962.0,235928.0,300451.0,610819.0,202665.0,279845.0,7597.0,4426.0,13608.0,-116.0,-1341.0,267.0,3649.0
950,253701.0,148494.0,-55202.0,236567.0,301924.0,612034.0,203297.0,279930.0,7597.0,4426.0,13608.0,-116.0,-1341.0,267.0,3649.0
951,253207.0,147706.0,-56139.0,235966.0,300732.0,611448.0,203476.0,279729.0,7705.0,4178.0,13479.0,106.0,-1426.0,-331.0,3649.0
952,253298.0,149499.0,-57429.0,235340.0,300111.0,611411.0,203649.0,279765.0,7705.0,4178.0,13479.0,106.0,-1426.0,-331.0,3649.0
953,253833.0,151263.0,-59023.0,233763.0,298821.0,610950.0,203715.0,279881.0,7705.0,4178.0,13479.0,106.0,-1426.0,-331.0,3649.0
954,253343.0,149145.0,-58449.0,233400.0,298531.0,610980.0,203219.0,279535.0,7705.0,4178.0,13479.0,106.0,-1426.0,-331.0,3649.0
955,251984.0,147394.0,-55970.0,234748.0,300335.0,611211.0,202804.0,278944.0,7705.0,4178.0,13479.0,106.0,-1426.0,-331.0,3649.0
956,250764.0,147461.0,-55523.0,235519.0,300121.0,610919.0,203389.0,278588.0,7705.0,4178.0,13479.0,106.0,-1426.0,-331.0,3649.0
957,250612.0,147982.0,-54597.0,236366.0,299156.0,611596.0,203683.0,278608.0,7705.0,4178.0,13479.0,106.0,-1426.0,-331.0,3649.0
958,250630.0,148299.0,-54584.0,236881.0,301108.0,612323.0,203364.0,278294.0,7705.0,4178.0,13479.0,106.0,-1426.0,-331.0,3649.0
959,250536.0,147224.0,-55369.0,236738.0,301554.0,612431.0,203476.0,278255.0,7705.0,4178.0,13479.0,106.0,-1426.0,-331.0,3649.0
960,250214.0,147713.0,-55768.0,236341.0,300824.0,612124.0,203560.0,278088.0,7705.0,4178.0,13479.0,106.0,-1426.0,-331.0,3649.0
