N,EMG_0,EMG_1,EMG_2,EMG_3,EMG_4,EMG_5,EMG_6,EMG_7,Acc_X,Acc_Y,Acc_Z,Gyro_X,Gyro_Y,Gyro_Z,VBAT
1,1073943.0,-284356.0,-346597.0,-743405.0,-965522.0,-460847.0,-16601.0,3729564.0,-10473.0,-10900.0,8018.0,2705.0,-942.0,-5328.0,3922.0
2,1073056.0,-283237.0,-344965.0,-741587.0,-964102.0,-460316.0,-15490.0,3728429.0,-10473.0,-10900.0,8018.0,2705.0,-942.0,-5328.0,3922.0
3,1072121.0,-281879.0,-342459.0,-739137.0,-961893.0,-459187.0,-13901.0,3727506.0,-10083.0,-10719.0,8038.0,3012.0,-985.0,-5329.0,3922.0
4,1070964.0,-280806.0,-340765.0,-737477.0,-960343.0,-458385.0,-12710.0,3726348.0,-10083.0,-10719.0,8038.0,3012.0,-985.0,-5329.0,3922.0
5,1070027.0,-279326.0,-338429.0,-735228.0,-958164.0,-457076.0,-11015.0,3725490.0,-10083.0,-10719.0,8038.0,3012.0,-985.0,-5329.0,3922.0
6,1069080.0,-278146.0,-336467.0,-733136.0,-956279.0,-455925.0,-9680.0,3724346.0,-10083.0,-10719.0,8038.0,3012.0,-985.0,-5329.0,3922.0
7,1068194.0,-277096.0,-334601.0,-731327.0,-954421.0,-454697.0,-8358.0,3723254.0,-10083.0,-10719.0,8038.0,3012.0,-985.0,-5329.0,3922.0
8,1067254.0,-276046.0,-332727.0,-729502.0,-952571.0,-453501.0,-7094.0,3722008.0,-10083.0,-10719.0,8038.0,3012.0,-985.0,-5329.0,3922.0
9,1066131.0,-274743.0,-330665.0,-727685.0,-950600.0,-452298.0,-5705.0,3720739.0,-10083.0,-10719.0,8038.0,3012.0,-985.0,-5329.0,3922.0
10,1064956.0,-273661.0,-328962.0,-726074.0,-948803.0,-451228.0,-4537.0,3719355.0,-10083.0,-10719.0,8038.0,3012.0,-985.0,-5329.0,3922.0
11,1063740.0,-272942.0,-327862.0,-725004.0,-947399.0,-450426.0,-3469.0,3718044.0,-10083.0,-10719.0,8038.0,3012.0,-985.0,-5329.0,3922.0
12,1062723.0,-271982.0,-326256.0,-723447.0,-945554.0,-449377.0,-2232.0,3716773.0,-10083.0,-10719.0,8038.0,3012.0,-985.0,-5329.0,3922.0
13,1061607.0,-270814.0,-324087.0,-721272.0,-943252.0,-447994.0,-593.0,3715688.0,-9675.0,-10562.0,8089.0,2815.0,-804.0,-5525.0,3922.0
14,1060284.0,-269894.0,-322801.0,-719997.0,-941632.0,-447049.0,555.0,3714404.0,-9675.0,-10562.0,8089.0,2815.0,-804.0,-5525.0,3922.0
15,1059050.0,-268355.0,-320415.0,-717706.0,-939106.0,-445541.0,2128.0,3713209.0,-9675.0,-10562.0,8089.0,2815.0,-804.0,-5525.0,3922.0
16,1057588.0,-267276.0,-318758.0,-716110.0,-937118.0,-444321.0,3406.0,3711991.0,-9675.0,-10562.0,8089.0,2815.0,-804.0,-5525.0,3922.0
17,1055926.0,-266496.0,-317694.0,-714974.0,-935622.0,-443412.0,4414.0,3710614.0,-9675.0,-10562.0,8089.0,2815.0,-804.0,-5525.0,3922.0
18,1054581.0,-265536.0,-316237.0,-713385.0,-933849.0,-442351.0,5629.0,3709300.0,-9675.0,-10562.0,8089.0,2815.0,-804.0,-5525.0,3922.0
19,1053664.0,-264323.0,-314096.0,-711374.0,-931406.0,-440425.0,7311.0,3708242.0,-9675.0,-10562.0,8089.0,2815.0,-804.0,-5525.0,3922.0
20,1052572.0,-263246.0,-312443.0,-709863.0,-929381.0,-438775.0,8763.0,3707074.0,-9675.0,-10562.0,8089.0,2815.0,-804.0,-5525.0,3922.0
21,1051295.0,-262059.0,-310607.0,-708067.0,-927424.0,-437885.0,10189.0,3705850.0,-9675.0,-10562.0,8089.0,2815.0,-804.0,-5525.0,3922.0
22,1049931.0,-260728.0,-308769.0,-706292.0,-925479.0,-436916.0,11513.0,3704500.0,-9675.0,-10562.0,8089.0,2815.0,-804.0,-5525.0,3922.0
23,1048863.0,-259246.0,-307048.0,-704556.0,-923542.0,-435774.0,12807.0,3703214.0,-9326.0,-10604.0,8304.0,2517.0,-708.0,-5659.0,3922.0
24,1048007.0,-257621.0,-305337.0,-702741.0,-921539.0,-434850.0,14168.0,3702106.0,-9326.0,-10604.0,8304.0,2517.0,-708.0,-5659.0,3922.0
25,1047264.0,-255882.0,-303766.0,-701062.0,-919492.0,-433811.0,15647.0,3701095.0,-9326.0,-10604.0,8304.0,2517.0,-708.0,-5659.0,3922.0
26,1046325.0,-254763.0,-302836.0,-699802.0,-917860.0,-432539.0,16674.0,3700027.0,-9326.0,-10604.0,8304.0,2517.0,-708.0,-5659.0,3922.0
27,1045371.0,-253751.0,-302084.0,-698504.0,-916589.0,-431514.0,17411.0,3698816.0,-9326.0,-10604.0,8304.0,2517.0,-708.0,-5659.0,3922.0
28,1044794.0,-252332.0,-301196.0,-697233.0,-915148.0,-430149.0,18212.0,3697828.0,-9326.0,-10604.0,8304.0,2517.0,-708.0,-5659.0,3922.0
29,1044543.0,-250446.0,-299627.0,-695404.0,-912983.0,-427856.0,19325.0,3697015.0,-9326.0,-10604.0,8304.0,2517.0,-708.0,-5659.0,3922.0
30,1044139.0,-248961.0,-298434.0,-693916.0,-911332.0,-426639.0,20311.0,3696173.0,-9326.0,-10604.0,8304.0,2517.0,-708.0,-5659.0,3922.0
31,1043439.0,-248165.0,-297734.0,-692746.0,-910012.0,-425608.0,21060.0,3695198.0,-9326.0,-10604.0,8304.0,2517.0,-708.0,-5659.0,3922.0
32,1042829.0,-246873.0,-296632.0,-691197.0,-908294.0,-424210.0,21979.0,3694364.0,-9326.0,-10604.0,8304.0,2517.0,-708.0,-5659.0,3922.0
33,1042666.0,-245131.0,-294835.0,-688966.0,-906151.0,-422851.0,23224.0,3693794.0,-9167.0,-10721.0,8410.0,1903.0,-806.0,-6010.0,3922.0
34,1042334.0,-243968.0,-293545.0,-687157.0,-904539.0,-421918.0,24200.0,3693101.0,-9167.0,-10721.0,8410.0,1903.0,-806.0,-6010.0,3922.0
35,1041868.0,-242743.0,-292332.0,-685462.0,-902854.0,-420650.0,25211.0,3692251.0,-9167.0,-10721.0,8410.0,1903.0,-806.0,-6010.0,3922.0
36,1041092.0,-241799.0,-292051.0,-684530.0,-901779.0,-418989.0,25644.0,3691143.0,-9167.0,-10721.0,8410.0,1903.0,-806.0,-6010.0,3922.0
37,1040566.0,-240634.0,-291463.0,-682981.0,-900421.0,-417021.0,26394.0,3690304.0,-9167.0,-10721.0,8410.0,1903.0,-806.0,-6010.0,3922.0
38,1040323.0,-239326.0,-290274.0,-681000.0,-898898.0,-415592.0,27352.0,3689616.0,-9167.0,-10721.0,8410.0,1903.0,-806.0,-6010.0,3922.0
39,1040114.0,-237771.0,-288472.0,-678557.0,-896922.0,-414215.0,28701.0,3689166.0,-9167.0,-10721.0,8410.0,1903.0,-806.0,-6010.0,3922.0
40,1039591.0,-236393.0,-287090.0,-676659.0,-895334.0,-413226.0,29836.0,3688576.0,-9167.0,-10721.0,8410.0,1903.0,-806.0,-6010.0,3922.0
41,1039149.0,-235067.0,-285697.0,-674702.0,-893721.0,-412543.0,30904.0,3687743.0,-9167.0,-10721.0,8410.0,1903.0,-806.0,-6010.0,3922.0
42,1038381.0,-233927.0,-284089.0,-672651.0,-891939.0,-411829.0,32069.0,3686964.0,-9167.0,-10721.0,8410.0,1903.0,-806.0,-6010.0,3922.0
43,1037352.0,-233081.0,-282731.0,-671086.0,-890514.0,-411501.0,33169.0,3686143.0,-9011.0,-10720.0,8470.0,1460.0,-892.0,-6541.0,3922.0
44,1036927.0,-231656.0,-281074.0,-669140.0,-888718.0,-410547.0,34616.0,3685534.0,-9011.0,-10720.0,8470.0,1460.0,-892.0,-6541.0,3922.0
45,1036274.0,-230409.0,-279415.0,-667302.0,-886892.0,-409153.0,35961.0,3684928.0,-9011.0,-10720.0,8470.0,1460.0,-892.0,-6541.0,3922.0
46,1035589.0,-229284.0,-278356.0,-666077.0,-885692.0,-408052.0,36753.0,3683939.0,-9011.0,-10720.0,8470.0,1460.0,-892.0,-6541.0,3922.0
47,1035183.0,-227629.0,-277547.0,-664724.0,-884402.0,-406664.0,37443.0,3682797.0,-9011.0,-10720.0,8470.0,1460.0,-892.0,-6541.0,3922.0
48,1034508.0,-226501.0,-277045.0,-663629.0,-883494.0,-405993.0,38059.0,3681789.0,-9011.0,-10720.0,8470.0,1460.0,-892.0,-6541.0,3922.0
49,1034171.0,-225269.0,-276035.0,-662104.0,-882091.0,-405014.0,38971.0,3680929.0,-9011.0,-10720.0,8470.0,1460.0,-892.0,-6541.0,3922.0
50,1033871.0,-224102.0,-274797.0,-660516.0,-880494.0,-403994.0,39984.0,3680032.0,-9011.0,-10720.0,8470.0,1460.0,-892.0,-6541.0,3922.0
51,1033460.0,-222653.0,-273182.0,-658659.0,-878609.0,-402923.0,41156.0,3679126.0,-9011.0,-10720.0,8470.0,1460.0,-892.0,-6541.0,3922.0
52,1033270.0,-221106.0,-271190.0,-656306.0,-876271.0,-401754.0,42569.0,3678432.0,-9011.0,-10720.0,8470.0,1460.0,-892.0,-6541.0,3922.0
53,1033131.0,-219741.0,-269638.0,-654502.0,-874464.0,-400917.0,43710.0,3677595.0,-8779.0,-10859.0,8609.0,1049.0,-706.0,-6436.0,3922.0
54,1033064.0,-218621.0,-268524.0,-653230.0,-872973.0,-400241.0,44733.0,3677011.0,-8779.0,-10859.0,8609.0,1049.0,-706.0,-6436.0,3922.0
55,1033224.0,-218196.0,-267300.0,-651501.0,-871111.0,-400549.0,46257.0,3676776.0,-8779.0,-10859.0,8609.0,1049.0,-706.0,-6436.0,3922.0
56,1032825.0,-217637.0,-267023.0,-650192.0,-870039.0,-400689.0,47070.0,3675966.0,-8779.0,-10859.0,8609.0,1049.0,-706.0,-6436.0,3922.0
57,1032661.0,-216137.0,-265477.0,-648224.0,-868168.0,-399572.0,48316.0,3675405.0,-8779.0,-10859.0,8609.0,1049.0,-706.0,-6436.0,3922.0
58,1032416.0,-215033.0,-264190.0,-646456.0,-866600.0,-398729.0,49474.0,3674676.0,-8779.0,-10859.0,8609.0,1049.0,-706.0,-6436.0,3922.0
59,1031987.0,-214272.0,-263356.0,-645418.0,-865379.0,-398082.0,50419.0,3673795.0,-8779.0,-10859.0,8609.0,1049.0,-706.0,-6436.0,3922.0
60,1031550.0,-213142.0,-261762.0,-643950.0,-863585.0,-397003.0,51719.0,3673093.0,-8779.0,-10859.0,8609.0,1049.0,-706.0,-6436.0,3922.0
61,1030924.0,-212091.0,-260727.0,-642734.0,-862211.0,-395959.0,52599.0,3671976.0,-8779.0,-10859.0,8609.0,1049.0,-706.0,-6436.0,3922.0
62,1030237.0,-210828.0,-259022.0,-641120.0,-860452.0,-394946.0,53767.0,3670994.0,-8779.0,-10859.0,8609.0,1049.0,-706.0,-6436.0,3922.0
63,1029683.0,-209490.0,-257124.0,-639096.0,-858363.0,-393213.0,55116.0,3670281.0,-8652.0,-11287.0,8821.0,1037.0,-691.0,-6447.0,3922.0
64,1029351.0,-208175.0,-255602.0,-637413.0,-856574.0,-392176.0,56277.0,3669534.0,-8652.0,-11287.0,8821.0,1037.0,-691.0,-6447.0,3922.0
65,1029169.0,-206776.0,-254042.0,-635738.0,-854814.0,-391541.0,57519.0,3668866.0,-8652.0,-11287.0,8821.0,1037.0,-691.0,-6447.0,3922.0
66,1028639.0,-205861.0,-253157.0,-634532.0,-853586.0,-390755.0,58533.0,3668154.0,-8652.0,-11287.0,8821.0,1037.0,-691.0,-6447.0,3922.0
67,1028223.0,-204709.0,-252206.0,-633219.0,-852241.0,-389294.0,59477.0,3667300.0,-8652.0,-11287.0,8821.0,1037.0,-691.0,-6447.0,3922.0
68,1027778.0,-203411.0,-250991.0,-631846.0,-850741.0,-387804.0,60456.0,3666438.0,-8652.0,-11287.0,8821.0,1037.0,-691.0,-6447.0,3922.0
69,1027186.0,-202309.0,-249638.0,-630357.0,-849293.0,-386540.0,61511.0,3665731.0,-8652.0,-11287.0,8821.0,1037.0,-691.0,-6447.0,3922.0
70,1026469.0,-201334.0,-248217.0,-628404.0,-847742.0,-385657.0,62618.0,3665081.0,-8652.0,-11287.0,8821.0,1037.0,-691.0,-6447.0,3922.0
71,1025898.0,-200573.0,-247373.0,-627031.0,-846689.0,-384910.0,63411.0,3664326.0,-8652.0,-11287.0,8821.0,1037.0,-691.0,-6447.0,3922.0
72,1025263.0,-199704.0,-246147.0,-625619.0,-845457.0,-383847.0,64477.0,3663716.0,-8652.0,-11287.0,8821.0,1037.0,-691.0,-6447.0,3922.0
73,1024824.0,-198603.0,-244181.0,-623719.0,-843692.0,-382315.0,65926.0,3663278.0,-8565.0,-11565.0,8820.0,1090.0,-668.0,-6454.0,3922.0
74,1024549.0,-197599.0,-242577.0,-622104.0,-842239.0,-381069.0,67112.0,3662544.0,-8565.0,-11565.0,8820.0,1090.0,-668.0,-6454.0,3922.0
75,1024296.0,-196583.0,-240926.0,-620324.0,-840659.0,-379464.0,68332.0,3661714.0,-8565.0,-11565.0,8820.0,1090.0,-668.0,-6454.0,3922.0
76,1023785.0,-195837.0,-239813.0,-618829.0,-839397.0,-378370.0,69309.0,3661017.0,-8565.0,-11565.0,8820.0,1090.0,-668.0,-6454.0,3922.0
77,1023363.0,-195193.0,-238745.0,-617459.0,-838042.0,-377221.0,70358.0,3660358.0,-8565.0,-11565.0,8820.0,1090.0,-668.0,-6454.0,3922.0
78,1022600.0,-194859.0,-237771.0,-616346.0,-837032.0,-376290.0,71374.0,3659704.0,-8565.0,-11565.0,8820.0,1090.0,-668.0,-6454.0,3922.0
79,1022019.0,-194244.0,-235746.0,-614226.0,-835217.0,-375095.0,72987.0,3659434.0,-8565.0,-11565.0,8820.0,1090.0,-668.0,-6454.0,3922.0
80,1021322.0,-193790.0,-234099.0,-612638.0,-833682.0,-374468.0,74500.0,3659214.0,-8565.0,-11565.0,8820.0,1090.0,-668.0,-6454.0,3922.0
81,1020668.0,-193274.0,-232826.0,-611621.0,-832401.0,-373605.0,75946.0,3658946.0,-8565.0,-11565.0,8820.0,1090.0,-668.0,-6454.0,3922.0
82,1019469.0,-192694.0,-231255.0,-609946.0,-830804.0,-372408.0,77414.0,3658321.0,-8565.0,-11565.0,8820.0,1090.0,-668.0,-6454.0,3922.0
83,1018278.0,-192409.0,-229677.0,-608248.0,-829212.0,-370909.0,78768.0,3657561.0,-8419.0,-11610.0,8643.0,1065.0,-604.0,-6433.0,3922.0
84,1017054.0,-192011.0,-228456.0,-606905.0,-828054.0,-370160.0,79959.0,3656676.0,-8419.0,-11610.0,8643.0,1065.0,-604.0,-6433.0,3922.0
85,1016160.0,-191114.0,-226275.0,-604783.0,-826054.0,-368898.0,81614.0,3655978.0,-8419.0,-11610.0,8643.0,1065.0,-604.0,-6433.0,3922.0
86,1015046.0,-190545.0,-224669.0,-603154.0,-824417.0,-367711.0,82996.0,3655098.0,-8419.0,-11610.0,8643.0,1065.0,-604.0,-6433.0,3922.0
87,1013589.0,-189564.0,-222814.0,-601371.0,-822854.0,-366920.0,84423.0,3654125.0,-8419.0,-11610.0,8643.0,1065.0,-604.0,-6433.0,3922.0
88,1011795.0,-188843.0,-221057.0,-599696.0,-821178.0,-365979.0,85798.0,3653102.0,-8419.0,-11610.0,8643.0,1065.0,-604.0,-6433.0,3922.0
89,1010263.0,-188177.0,-219744.0,-598521.0,-819904.0,-365476.0,87113.0,3652139.0,-8419.0,-11610.0,8643.0,1065.0,-604.0,-6433.0,3922.0
90,1009128.0,-187162.0,-218009.0,-596897.0,-818207.0,-364756.0,88806.0,3651205.0,-8419.0,-11610.0,8643.0,1065.0,-604.0,-6433.0,3922.0
91,1007656.0,-186494.0,-216552.0,-595576.0,-816792.0,-364323.0,90078.0,3650010.0,-8419.0,-11610.0,8643.0,1065.0,-604.0,-6433.0,3922.0
92,1006076.0,-185639.0,-214591.0,-593817.0,-814944.0,-363625.0,91513.0,3648746.0,-8419.0,-11610.0,8643.0,1065.0,-604.0,-6433.0,3922.0
93,1004784.0,-184609.0,-212146.0,-591648.0,-812592.0,-362367.0,93374.0,3647716.0,-8217.0,-11746.0,8580.0,1225.0,-581.0,-6387.0,3922.0
94,1003424.0,-183767.0,-210280.0,-589858.0,-810561.0,-361727.0,95077.0,3646726.0,-8217.0,-11746.0,8580.0,1225.0,-581.0,-6387.0,3922.0
95,1002011.0,-182766.0,-208169.0,-587879.0,-808345.0,-360707.0,96803.0,3645425.0,-8217.0,-11746.0,8580.0,1225.0,-581.0,-6387.0,3922.0
96,1000360.0,-182197.0,-206630.0,-586384.0,-806558.0,-360022.0,98219.0,3643991.0,-8217.0,-11746.0,8580.0,1225.0,-581.0,-6387.0,3922.0
97,998835.0,-181751.0,-205492.0,-585436.0,-805229.0,-359679.0,99522.0,3642837.0,-8217.0,-11746.0,8580.0,1225.0,-581.0,-6387.0,3922.0
98,997686.0,-180872.0,-204125.0,-584256.0,-803616.0,-358811.0,100914.0,3641885.0,-8217.0,-11746.0,8580.0,1225.0,-581.0,-6387.0,3922.0
99,996583.0,-180071.0,-202432.0,-582844.0,-801736.0,-358150.0,102480.0,3640845.0,-8217.0,-11746.0,8580.0,1225.0,-581.0,-6387.0,3922.0
100,995113.0,-179039.0,-200937.0,-581444.0,-800094.0,-357678.0,104004.0,3639681.0,-8217.0,-11746.0,8580.0,1225.0,-581.0,-6387.0,3922.0
101,993326.0,-177824.0,-199057.0,-579827.0,-798172.0,-356951.0,105571.0,3638306.0,-8217.0,-11746.0,8580.0,1225.0,-581.0,-6387.0,3922.0
102,991805.0,-176897.0,-197322.0,-578288.0,-796170.0,-356063.0,107028.0,3636953.0,-8217.0,-11746.0,8580.0,1225.0,-581.0,-6387.0,3922.0
103,990696.0,-175884.0,-195435.0,-576309.0,-793981.0,-354826.0,108648.0,3635789.0,-7960.0,-12125.0,8643.0,1666.0,-440.0,-6185.0,3922.0
104,989368.0,-175642.0,-194114.0,-574798.0,-792196.0,-354158.0,109999.0,3634448.0,-7960.0,-12125.0,8643.0,1666.0,-440.0,-6185.0,3922.0
105,988329.0,-174684.0,-192122.0,-572582.0,-789701.0,-352591.0,111678.0,3633344.0,-7960.0,-12125.0,8643.0,1666.0,-440.0,-6185.0,3922.0
106,987333.0,-173743.0,-190789.0,-571271.0,-788037.0,-351215.0,112906.0,3632236.0,-7960.0,-12125.0,8643.0,1666.0,-440.0,-6185.0,3922.0
107,986289.0,-172764.0,-189532.0,-569879.0,-786416.0,-350029.0,114165.0,3631158.0,-7960.0,-12125.0,8643.0,1666.0,-440.0,-6185.0,3922.0
108,984936.0,-171725.0,-188102.0,-568335.0,-784779.0,-348901.0,115432.0,3629901.0,-7960.0,-12125.0,8643.0,1666.0,-440.0,-6185.0,3922.0
109,983696.0,-170811.0,-186727.0,-566662.0,-783152.0,-347763.0,116670.0,3628655.0,-7960.0,-12125.0,8643.0,1666.0,-440.0,-6185.0,3922.0
110,982404.0,-170266.0,-185831.0,-565524.0,-781973.0,-347009.0,117588.0,3627254.0,-7960.0,-12125.0,8643.0,1666.0,-440.0,-6185.0,3922.0
111,981393.0,-169241.0,-184541.0,-563914.0,-780309.0,-346101.0,118776.0,3626082.0,-7960.0,-12125.0,8643.0,1666.0,-440.0,-6185.0,3922.0
112,980691.0,-167702.0,-182886.0,-562004.0,-778239.0,-344472.0,120264.0,3625093.0,-7960.0,-12125.0,8643.0,1666.0,-440.0,-6185.0,3922.0
113,979999.0,-166567.0,-181437.0,-560661.0,-776501.0,-343258.0,121519.0,3624104.0,-7726.0,-12339.0,8856.0,2053.0,-469.0,-6006.0,3922.0
114,979288.0,-165889.0,-180825.0,-560197.0,-775484.0,-342343.0,122342.0,3623024.0,-7726.0,-12339.0,8856.0,2053.0,-469.0,-6006.0,3922.0
115,978949.0,-164422.0,-179404.0,-558667.0,-773557.0,-340629.0,123717.0,3622275.0,-7726.0,-12339.0,8856.0,2053.0,-469.0,-6006.0,3922.0
116,978297.0,-161628.0,-178613.0,-557854.0,-772761.0,-339933.0,124302.0,3621196.0,-7726.0,-12339.0,8856.0,2053.0,-469.0,-6006.0,3922.0
117,977565.0,-158315.0,-178581.0,-557371.0,-772429.0,-339571.0,124605.0,3620012.0,-7726.0,-12339.0,8856.0,2053.0,-469.0,-6006.0,3922.0
118,977313.0,-156321.0,-177091.0,-555713.0,-771127.0,-338111.0,125413.0,3619056.0,-7726.0,-12339.0,8856.0,2053.0,-469.0,-6006.0,3922.0
119,977303.0,-154920.0,-176077.0,-554117.0,-769864.0,-336808.0,126383.0,3618259.0,-7726.0,-12339.0,8856.0,2053.0,-469.0,-6006.0,3922.0
120,977178.0,-153547.0,-175022.0,-552742.0,-768806.0,-335867.0,127148.0,3617276.0,-7726.0,-12339.0,8856.0,2053.0,-469.0,-6006.0,3922.0
121,976776.0,-152431.0,-174173.0,-551619.0,-767975.0,-335281.0,127761.0,3616282.0,-7726.0,-12339.0,8856.0,2053.0,-469.0,-6006.0,3922.0
122,976534.0,-151297.0,-172352.0,-549794.0,-766483.0,-334110.0,128926.0,3615676.0,-7726.0,-12339.0,8856.0,2053.0,-469.0,-6006.0,3922.0
123,976098.0,-150312.0,-171269.0,-547992.0,-764929.0,-333132.0,130256.0,3615106.0,-7483.0,-12251.0,9056.0,1793.0,-430.0,-5820.0,3922.0
124,975275.0,-149408.0,-169997.0,-546344.0,-763674.0,-332494.0,131387.0,3614256.0,-7483.0,-12251.0,9056.0,1793.0,-430.0,-5820.0,3922.0
125,974971.0,-148386.0,-169189.0,-544967.0,-762377.0,-331163.0,132565.0,3613423.0,-7483.0,-12251.0,9056.0,1793.0,-430.0,-5820.0,3922.0
126,974529.0,-147854.0,-168422.0,-543965.0,-761492.0,-330048.0,133394.0,3612319.0,-7483.0,-12251.0,9056.0,1793.0,-430.0,-5820.0,3922.0
127,974012.0,-147201.0,-168179.0,-543135.0,-760783.0,-329256.0,134066.0,3611329.0,-7483.0,-12251.0,9056.0,1793.0,-430.0,-5820.0,3922.0
128,973651.0,-146070.0,-167246.0,-541822.0,-759996.0,-329065.0,134894.0,3610554.0,-7483.0,-12251.0,9056.0,1793.0,-430.0,-5820.0,3922.0
129,973512.0,-144839.0,-166032.0,-540079.0,-758692.0,-328729.0,136073.0,3609781.0,-7483.0,-12251.0,9056.0,1793.0,-430.0,-5820.0,3922.0
130,973123.0,-143674.0,-164599.0,-538274.0,-757337.0,-328177.0,137423.0,3609021.0,-7483.0,-12251.0,9056.0,1793.0,-430.0,-5820.0,3922.0
131,972501.0,-142852.0,-164047.0,-537232.0,-756561.0,-327574.0,138371.0,3608156.0,-7483.0,-12251.0,9056.0,1793.0,-430.0,-5820.0,3922.0
132,971964.0,-141889.0,-163133.0,-535956.0,-755574.0,-326656.0,139300.0,3607309.0,-7483.0,-12251.0,9056.0,1793.0,-430.0,-5820.0,3922.0
133,971834.0,-140611.0,-161781.0,-534123.0,-754041.0,-325444.0,140513.0,3606627.0,-7207.0,-12086.0,9148.0,1486.0,-465.0,-5605.0,3922.0
134,971453.0,-139677.0,-161003.0,-532997.0,-753151.0,-324773.0,141406.0,3605619.0,-7207.0,-12086.0,9148.0,1486.0,-465.0,-5605.0,3922.0
135,970883.0,-138221.0,-159366.0,-531016.0,-751559.0,-323617.0,142802.0,3604915.0,-7207.0,-12086.0,9148.0,1486.0,-465.0,-5605.0,3922.0
136,969770.0,-137185.0,-158606.0,-529894.0,-750711.0,-322911.0,143643.0,3604046.0,-7207.0,-12086.0,9148.0,1486.0,-465.0,-5605.0,3922.0
137,968979.0,-136129.0,-157801.0,-528499.0,-749537.0,-321732.0,144679.0,3603440.0,-7207.0,-12086.0,9148.0,1486.0,-465.0,-5605.0,3922.0
138,968819.0,-134940.0,-156760.0,-526871.0,-748049.0,-320115.0,145844.0,3602849.0,-7207.0,-12086.0,9148.0,1486.0,-465.0,-5605.0,3922.0
139,968907.0,-133933.0,-156943.0,-525624.0,-746732.0,-318666.0,146928.0,3602261.0,-7207.0,-12086.0,9148.0,1486.0,-465.0,-5605.0,3922.0
140,968524.0,-133025.0,-156767.0,-524875.0,-745882.0,-317781.0,147661.0,3601308.0,-7207.0,-12086.0,9148.0,1486.0,-465.0,-5605.0,3922.0
141,967845.0,-131985.0,-155492.0,-523629.0,-744530.0,-316918.0,148718.0,3600573.0,-7207.0,-12086.0,9148.0,1486.0,-465.0,-5605.0,3922.0
142,967263.0,-130721.0,-153861.0,-521956.0,-743282.0,-315909.0,149974.0,3599933.0,-7207.0,-12086.0,9148.0,1486.0,-465.0,-5605.0,3922.0
143,966676.0,-129615.0,-152956.0,-520487.0,-743196.0,-315276.0,150865.0,3598984.0,-6810.0,-12062.0,9139.0,1451.0,-132.0,-5405.0,3922.0
144,966291.0,-128932.0,-151981.0,-519609.0,-741864.0,-314343.0,151975.0,3598350.0,-6810.0,-12062.0,9139.0,1451.0,-132.0,-5405.0,3922.0
145,965929.0,-127681.0,-150279.0,-517924.0,-739978.0,-312872.0,153480.0,3597839.0,-6810.0,-12062.0,9139.0,1451.0,-132.0,-5405.0,3922.0
146,965029.0,-126619.0,-149334.0,-516791.0,-738729.0,-311881.0,154463.0,3596829.0,-6810.0,-12062.0,9139.0,1451.0,-132.0,-5405.0,3922.0
147,964213.0,-125836.0,-148934.0,-516092.0,-737913.0,-311307.0,155178.0,3595759.0,-6810.0,-12062.0,9139.0,1451.0,-132.0,-5405.0,3922.0
148,963647.0,-124642.0,-148223.0,-515109.0,-736930.0,-310205.0,155978.0,3594639.0,-6810.0,-12062.0,9139.0,1451.0,-132.0,-5405.0,3922.0
149,963138.0,-123185.0,-147147.0,-513964.0,-735711.0,-309064.0,156990.0,3593668.0,-6810.0,-12062.0,9139.0,1451.0,-132.0,-5405.0,3922.0
150,962629.0,-121898.0,-145922.0,-512563.0,-734376.0,-308107.0,158108.0,3592744.0,-6810.0,-12062.0,9139.0,1451.0,-132.0,-5405.0,3922.0
151,962293.0,-120291.0,-144374.0,-510938.0,-732725.0,-306556.0,159361.0,3591938.0,-6810.0,-12062.0,9139.0,1451.0,-132.0,-5405.0,3922.0
152,962069.0,-118878.0,-143331.0,-509658.0,-731442.0,-305256.0,160343.0,3590986.0,-6810.0,-12062.0,9139.0,1451.0,-132.0,-5405.0,3922.0
153,961563.0,-117452.0,-142329.0,-508162.0,-730186.0,-304167.0,161312.0,3590078.0,-6520.0,-12153.0,9391.0,1151.0,-102.0,-4926.0,3922.0
154,960833.0,-116184.0,-141438.0,-506768.0,-728919.0,-302912.0,162233.0,3589190.0,-6520.0,-12153.0,9391.0,1151.0,-102.0,-4926.0,3922.0
155,960461.0,-114727.0,-140168.0,-505221.0,-727435.0,-301448.0,163282.0,3588321.0,-6520.0,-12153.0,9391.0,1151.0,-102.0,-4926.0,3922.0
156,960057.0,-113533.0,-139504.0,-504186.0,-726381.0,-300380.0,163968.0,3587338.0,-6520.0,-12153.0,9391.0,1151.0,-102.0,-4926.0,3922.0
157,959545.0,-113242.0,-139107.0,-503709.0,-725431.0,-299311.0,164791.0,3586470.0,-6520.0,-12153.0,9391.0,1151.0,-102.0,-4926.0,3922.0
158,959451.0,-112922.0,-137884.0,-502942.0,-723674.0,-297612.0,166107.0,3585878.0,-6520.0,-12153.0,9391.0,1151.0,-102.0,-4926.0,3922.0
159,959229.0,-111706.0,-136859.0,-501645.0,-722425.0,-296317.0,167054.0,3585011.0,-6520.0,-12153.0,9391.0,1151.0,-102.0,-4926.0,3922.0
160,958679.0,-110692.0,-135973.0,-500417.0,-721384.0,-295276.0,167919.0,3584183.0,-6520.0,-12153.0,9391.0,1151.0,-102.0,-4926.0,3922.0
161,957958.0,-109907.0,-135377.0,-499553.0,-720597.0,-294736.0,168692.0,3583313.0,-6520.0,-12153.0,9391.0,1151.0,-102.0,-4926.0,3922.0
162,957274.0,-109015.0,-134519.0,-498369.0,-719577.0,-294155.0,169621.0,3582488.0,-6520.0,-12153.0,9391.0,1151.0,-102.0,-4926.0,3922.0
163,956751.0,-107912.0,-133538.0,-496979.0,-718442.0,-293318.0,170728.0,3581748.0,-6329.0,-12211.0,9527.0,944.0,-82.0,-4502.0,3922.0
164,956437.0,-106560.0,-132147.0,-495307.0,-716931.0,-292124.0,172068.0,3581116.0,-6329.0,-12211.0,9527.0,944.0,-82.0,-4502.0,3922.0
165,956076.0,-105341.0,-130880.0,-493831.0,-715636.0,-290855.0,173151.0,3580392.0,-6329.0,-12211.0,9527.0,944.0,-82.0,-4502.0,3922.0
166,955487.0,-104477.0,-130285.0,-492872.0,-714766.0,-289955.0,174025.0,3579679.0,-6329.0,-12211.0,9527.0,944.0,-82.0,-4502.0,3922.0
167,954954.0,-103713.0,-129640.0,-491654.0,-713870.0,-289288.0,175001.0,3578943.0,-6329.0,-12211.0,9527.0,944.0,-82.0,-4502.0,3922.0
168,954403.0,-103223.0,-129256.0,-490767.0,-713259.0,-288687.0,175684.0,3578026.0,-6329.0,-12211.0,9527.0,944.0,-82.0,-4502.0,3922.0
169,954004.0,-102207.0,-128101.0,-489301.0,-711967.0,-287715.0,176754.0,3577310.0,-6329.0,-12211.0,9527.0,944.0,-82.0,-4502.0,3922.0
170,953639.0,-100930.0,-126497.0,-487535.0,-710376.0,-286644.0,178118.0,3576809.0,-6329.0,-12211.0,9527.0,944.0,-82.0,-4502.0,3922.0
171,952856.0,-99691.0,-125584.0,-486416.0,-709306.0,-285812.0,179106.0,3576108.0,-6329.0,-12211.0,9527.0,944.0,-82.0,-4502.0,3922.0
172,952155.0,-98566.0,-125034.0,-485732.0,-708677.0,-285306.0,179743.0,3575221.0,-6329.0,-12211.0,9527.0,944.0,-82.0,-4502.0,3922.0
173,952013.0,-97231.0,-123711.0,-484483.0,-707377.0,-284325.0,180908.0,3574670.0,-6237.0,-12227.0,9578.0,448.0,65.0,-3922.0,3922.0
174,951435.0,-96526.0,-122929.0,-483561.0,-706455.0,-283527.0,181779.0,3573899.0,-6237.0,-12227.0,9578.0,448.0,65.0,-3922.0,3922.0
175,951114.0,-95491.0,-121616.0,-482527.0,-705006.0,-282468.0,183058.0,3573356.0,-6237.0,-12227.0,9578.0,448.0,65.0,-3922.0,3922.0
176,950868.0,-94673.0,-121346.0,-481994.0,-704422.0,-282048.0,183631.0,3572460.0,-6237.0,-12227.0,9578.0,448.0,65.0,-3922.0,3922.0
177,951006.0,-93473.0,-120025.0,-480740.0,-703146.0,-281099.0,184722.0,3571931.0,-6237.0,-12227.0,9578.0,448.0,65.0,-3922.0,3922.0
178,950611.0,-92542.0,-119043.0,-479574.0,-702073.0,-280320.0,185506.0,3571171.0,-6237.0,-12227.0,9578.0,448.0,65.0,-3922.0,3922.0
179,949521.0,-91857.0,-118521.0,-478559.0,-701199.0,-279587.0,186165.0,3570212.0,-6237.0,-12227.0,9578.0,448.0,65.0,-3922.0,3922.0
180,949064.0,-90991.0,-117885.0,-477619.0,-700359.0,-278904.0,187111.0,3569673.0,-6237.0,-12227.0,9578.0,448.0,65.0,-3922.0,3922.0
181,948831.0,-89953.0,-116811.0,-476427.0,-698982.0,-277604.0,188308.0,3569213.0,-6237.0,-12227.0,9578.0,448.0,65.0,-3922.0,3922.0
182,948038.0,-89460.0,-116231.0,-475727.0,-698269.0,-276856.0,189001.0,3568377.0,-6237.0,-12227.0,9578.0,448.0,65.0,-3922.0,3922.0
183,947553.0,-88786.0,-115459.0,-474607.0,-697271.0,-275897.0,189810.0,3567668.0,-6212.0,-12335.0,9527.0,11.0,144.0,-3567.0,3922.0
184,947159.0,-87945.0,-114461.0,-473181.0,-695994.0,-274942.0,190766.0,3566947.0,-6212.0,-12335.0,9527.0,11.0,144.0,-3567.0,3922.0
185,946949.0,-86681.0,-113068.0,-471472.0,-694455.0,-273832.0,191946.0,3566324.0,-6212.0,-12335.0,9527.0,11.0,144.0,-3567.0,3922.0
186,946608.0,-85969.0,-112866.0,-470921.0,-693957.0,-273612.0,192437.0,3565438.0,-6212.0,-12335.0,9527.0,11.0,144.0,-3567.0,3922.0
187,946262.0,-84918.0,-111539.0,-469452.0,-692500.0,-272622.0,193650.0,3564923.0,-6212.0,-12335.0,9527.0,11.0,144.0,-3567.0,3922.0
188,945512.0,-83978.0,-110278.0,-468199.0,-691247.0,-271799.0,194789.0,3564253.0,-6212.0,-12335.0,9527.0,11.0,144.0,-3567.0,3922.0
189,944651.0,-83336.0,-109689.0,-467381.0,-690474.0,-271329.0,195517.0,3563334.0,-6212.0,-12335.0,9527.0,11.0,144.0,-3567.0,3922.0
190,943849.0,-82552.0,-108681.0,-466277.0,-689459.0,-270659.0,196438.0,3562466.0,-6212.0,-12335.0,9527.0,11.0,144.0,-3567.0,3922.0
191,943287.0,-81606.0,-107026.0,-464670.0,-687812.0,-269409.0,197879.0,3561806.0,-6212.0,-12335.0,9527.0,11.0,144.0,-3567.0,3922.0
192,942588.0,-81052.0,-105724.0,-463329.0,-686409.0,-268843.0,199077.0,3561016.0,-6212.0,-12335.0,9527.0,11.0,144.0,-3567.0,3922.0
193,941815.0,-80316.0,-104313.0,-462033.0,-685013.0,-268327.0,200335.0,3560219.0,-6142.0,-12434.0,9480.0,-146.0,89.0,-3230.0,3922.0
194,941053.0,-79359.0,-102842.0,-460554.0,-683512.0,-267586.0,201510.0,3559357.0,-6142.0,-12434.0,9480.0,-146.0,89.0,-3230.0,3922.0
195,940369.0,-78311.0,-101546.0,-458965.0,-681981.0,-266704.0,202601.0,3558403.0,-6142.0,-12434.0,9480.0,-146.0,89.0,-3230.0,3922.0
196,939447.0,-77738.0,-101397.0,-458631.0,-681389.0,-266016.0,203153.0,3557202.0,-6142.0,-12434.0,9480.0,-146.0,89.0,-3230.0,3922.0
197,938712.0,-76847.0,-100493.0,-457696.0,-680161.0,-264932.0,204100.0,3556098.0,-6142.0,-12434.0,9480.0,-146.0,89.0,-3230.0,3922.0
198,938176.0,-75593.0,-98746.0,-456103.0,-678308.0,-263246.0,205371.0,3555084.0,-6142.0,-12434.0,9480.0,-146.0,89.0,-3230.0,3922.0
199,937559.0,-74523.0,-97585.0,-454981.0,-676793.0,-261556.0,206510.0,3554168.0,-6142.0,-12434.0,9480.0,-146.0,89.0,-3230.0,3922.0
200,936815.0,-73548.0,-96531.0,-453909.0,-675486.0,-260458.0,207594.0,3553274.0,-6142.0,-12434.0,9480.0,-146.0,89.0,-3230.0,3922.0
201,935992.0,-72567.0,-95325.0,-452616.0,-674137.0,-259630.0,208675.0,3552311.0,-6142.0,-12434.0,9480.0,-146.0,89.0,-3230.0,3922.0
202,935021.0,-71716.0,-94354.0,-451427.0,-672951.0,-258882.0,209653.0,3551267.0,-6142.0,-12434.0,9480.0,-146.0,89.0,-3230.0,3922.0
203,933878.0,-71119.0,-93737.0,-450623.0,-672046.0,-258380.0,210518.0,3550145.0,-6020.0,-12616.0,9479.0,-86.0,3.0,-2679.0,3922.0
204,933099.0,-70259.0,-92912.0,-449644.0,-671023.0,-257667.0,211488.0,3549268.0,-6020.0,-12616.0,9479.0,-86.0,3.0,-2679.0,3922.0
205,932713.0,-68963.0,-91211.0,-447804.0,-669169.0,-256037.0,212541.0,3548297.0,-6020.0,-12616.0,9479.0,-86.0,3.0,-2679.0,3922.0
206,932064.0,-68226.0,-90312.0,-446711.0,-668001.0,-255034.0,213536.0,3547453.0,-6020.0,-12616.0,9479.0,-86.0,3.0,-2679.0,3922.0
207,931396.0,-67571.0,-89973.0,-446164.0,-667326.0,-254559.0,214421.0,3546618.0,-6020.0,-12616.0,9479.0,-86.0,3.0,-2679.0,3922.0
208,931007.0,-66468.0,-89040.0,-445203.0,-666221.0,-253678.0,215286.0,3545721.0,-6020.0,-12616.0,9479.0,-86.0,3.0,-2679.0,3922.0
209,930751.0,-65321.0,-87385.0,-443534.0,-664447.0,-252134.0,216561.0,3545032.0,-6020.0,-12616.0,9479.0,-86.0,3.0,-2679.0,3922.0
210,930017.0,-64660.0,-86405.0,-442286.0,-663240.0,-251038.0,217496.0,3544090.0,-6020.0,-12616.0,9479.0,-86.0,3.0,-2679.0,3922.0
211,929499.0,-63585.0,-85004.0,-440654.0,-661608.0,-249597.0,218783.0,3543425.0,-6020.0,-12616.0,9479.0,-86.0,3.0,-2679.0,3922.0
212,928874.0,-62718.0,-84024.0,-439631.0,-660341.0,-248459.0,219813.0,3542642.0,-6020.0,-12616.0,9479.0,-86.0,3.0,-2679.0,3922.0
213,928102.0,-61999.0,-83419.0,-438887.0,-659405.0,-247671.0,220615.0,3541732.0,-5907.0,-12835.0,9459.0,294.0,33.0,-2147.0,3922.0
214,927836.0,-60775.0,-81842.0,-437243.0,-657689.0,-246109.0,221867.0,3541128.0,-5907.0,-12835.0,9459.0,294.0,33.0,-2147.0,3922.0
215,927537.0,-59607.0,-80592.0,-435843.0,-656227.0,-244675.0,222953.0,3540403.0,-5907.0,-12835.0,9459.0,294.0,33.0,-2147.0,3922.0
216,926974.0,-58779.0,-80162.0,-435116.0,-655390.0,-243765.0,223593.0,3539530.0,-5907.0,-12835.0,9459.0,294.0,33.0,-2147.0,3922.0
217,926459.0,-58097.0,-79893.0,-434446.0,-654658.0,-242969.0,224207.0,3538661.0,-5907.0,-12835.0,9459.0,294.0,33.0,-2147.0,3922.0
218,926239.0,-57022.0,-79052.0,-433225.0,-653432.0,-241826.0,225051.0,3537914.0,-5907.0,-12835.0,9459.0,294.0,33.0,-2147.0,3922.0
219,925823.0,-56264.0,-78571.0,-432494.0,-652600.0,-241102.0,225633.0,3537088.0,-5907.0,-12835.0,9459.0,294.0,33.0,-2147.0,3922.0
220,925555.0,-55162.0,-77349.0,-431172.0,-651207.0,-239842.0,226599.0,3536576.0,-5907.0,-12835.0,9459.0,294.0,33.0,-2147.0,3922.0
221,925196.0,-54029.0,-76245.0,-429894.0,-649915.0,-238687.0,227519.0,3536021.0,-5907.0,-12835.0,9459.0,294.0,33.0,-2147.0,3922.0
222,924787.0,-53141.0,-75444.0,-429000.0,-648911.0,-237721.0,228279.0,3535330.0,-5907.0,-12835.0,9459.0,294.0,33.0,-2147.0,3922.0
223,924381.0,-52470.0,-74962.0,-428353.0,-648144.0,-237012.0,228866.0,3534568.0,-5820.0,-12830.0,9505.0,347.0,-86.0,-1666.0,3922.0
224,924274.0,-51343.0,-73805.0,-427022.0,-646797.0,-235597.0,229907.0,3534029.0,-5820.0,-12830.0,9505.0,347.0,-86.0,-1666.0,3922.0
225,924019.0,-50193.0,-72739.0,-425680.0,-645489.0,-234131.0,230846.0,3533299.0,-5820.0,-12830.0,9505.0,347.0,-86.0,-1666.0,3922.0
226,923453.0,-49526.0,-72729.0,-425346.0,-645163.0,-233419.0,231149.0,3532388.0,-5820.0,-12830.0,9505.0,347.0,-86.0,-1666.0,3922.0
227,923149.0,-48496.0,-72108.0,-424508.0,-644345.0,-232280.0,231798.0,3531738.0,-5820.0,-12830.0,9505.0,347.0,-86.0,-1666.0,3922.0
228,922968.0,-47107.0,-70731.0,-422968.0,-642845.0,-230729.0,232856.0,3531229.0,-5820.0,-12830.0,9505.0,347.0,-86.0,-1666.0,3922.0
229,922486.0,-45944.0,-69663.0,-421683.0,-641624.0,-229529.0,233801.0,3530609.0,-5820.0,-12830.0,9505.0,347.0,-86.0,-1666.0,3922.0
230,921649.0,-45174.0,-69061.0,-420894.0,-640880.0,-228877.0,234404.0,3529649.0,-5820.0,-12830.0,9505.0,347.0,-86.0,-1666.0,3922.0
231,920963.0,-44304.0,-67926.0,-419611.0,-639659.0,-227814.0,235346.0,3528816.0,-5820.0,-12830.0,9505.0,347.0,-86.0,-1666.0,3922.0
232,920424.0,-43297.0,-66642.0,-418229.0,-638250.0,-226568.0,236305.0,3528103.0,-5820.0,-12830.0,9505.0,347.0,-86.0,-1666.0,3922.0
233,920060.0,-42024.0,-65249.0,-416677.0,-636704.0,-225201.0,237384.0,3527489.0,-5748.0,-12694.0,9471.0,111.0,-319.0,-1298.0,3922.0
234,919224.0,-41152.0,-64637.0,-415844.0,-635877.0,-224537.0,238115.0,3526578.0,-5748.0,-12694.0,9471.0,111.0,-319.0,-1298.0,3922.0
235,918636.0,-39827.0,-63491.0,-414559.0,-634524.0,-223376.0,239224.0,3525839.0,-5748.0,-12694.0,9471.0,111.0,-319.0,-1298.0,3922.0
236,918101.0,-38704.0,-63048.0,-413886.0,-633739.0,-222582.0,239883.0,3525018.0,-5748.0,-12694.0,9471.0,111.0,-319.0,-1298.0,3922.0
237,917609.0,-37771.0,-62831.0,-413427.0,-633234.0,-222041.0,240441.0,3524130.0,-5748.0,-12694.0,9471.0,111.0,-319.0,-1298.0,3922.0
238,917243.0,-36556.0,-61966.0,-412305.0,-632167.0,-221052.0,241352.0,3523346.0,-5748.0,-12694.0,9471.0,111.0,-319.0,-1298.0,3922.0
239,916650.0,-35211.0,-60881.0,-411154.0,-631038.0,-220136.0,242308.0,3522508.0,-5748.0,-12694.0,9471.0,111.0,-319.0,-1298.0,3922.0
240,915828.0,-34004.0,-59837.0,-410021.0,-629925.0,-219312.0,243276.0,3521669.0,-5748.0,-12694.0,9471.0,111.0,-319.0,-1298.0,3922.0
241,914806.0,-33082.0,-58653.0,-408824.0,-628662.0,-218394.0,244252.0,3520721.0,-5748.0,-12694.0,9471.0,111.0,-319.0,-1298.0,3922.0
242,913543.0,-32610.0,-57967.0,-408107.0,-627836.0,-217769.0,244884.0,3519799.0,-5748.0,-12694.0,9471.0,111.0,-319.0,-1298.0,3922.0
243,912596.0,-31698.0,-57020.0,-407179.0,-626723.0,-216986.0,245771.0,3518918.0,-5708.0,-12659.0,9356.0,32.0,-815.0,-1028.0,3922.0
244,911890.0,-30427.0,-55909.0,-405990.0,-625359.0,-215959.0,246758.0,3517889.0,-5708.0,-12659.0,9356.0,32.0,-815.0,-1028.0,3922.0
245,911398.0,-29133.0,-54486.0,-404445.0,-623737.0,-214644.0,247860.0,3516973.0,-5708.0,-12659.0,9356.0,32.0,-815.0,-1028.0,3922.0
246,910565.0,-28469.0,-54096.0,-403776.0,-623047.0,-214071.0,248378.0,3515665.0,-5708.0,-12659.0,9356.0,32.0,-815.0,-1028.0,3922.0
247,909874.0,-27564.0,-53257.0,-402779.0,-621991.0,-213252.0,249167.0,3514571.0,-5708.0,-12659.0,9356.0,32.0,-815.0,-1028.0,3922.0
248,909198.0,-26789.0,-52542.0,-401904.0,-621069.0,-212443.0,250021.0,3513678.0,-5708.0,-12659.0,9356.0,32.0,-815.0,-1028.0,3922.0
249,908389.0,-25891.0,-51629.0,-400862.0,-619913.0,-211414.0,250941.0,3512709.0,-5708.0,-12659.0,9356.0,32.0,-815.0,-1028.0,3922.0
250,907592.0,-24745.0,-50238.0,-399364.0,-618332.0,-210066.0,252059.0,3511758.0,-5708.0,-12659.0,9356.0,32.0,-815.0,-1028.0,3922.0
251,906536.0,-23881.0,-49351.0,-398393.0,-617245.0,-209356.0,252874.0,3510677.0,-5708.0,-12659.0,9356.0,32.0,-815.0,-1028.0,3922.0
252,905675.0,-22772.0,-48069.0,-397034.0,-615784.0,-208229.0,253976.0,3509760.0,-5708.0,-12659.0,9356.0,32.0,-815.0,-1028.0,3922.0
253,904834.0,-21966.0,-47367.0,-396234.0,-614742.0,-207459.0,254831.0,3508694.0,-5722.0,-12697.0,9269.0,236.0,-1282.0,-820.0,3922.0
254,904383.0,-20807.0,-46283.0,-394977.0,-613309.0,-206350.0,255931.0,3507822.0,-5722.0,-12697.0,9269.0,236.0,-1282.0,-820.0,3922.0
255,903736.0,-19551.0,-45085.0,-393712.0,-611969.0,-205276.0,256914.0,3506550.0,-5722.0,-12697.0,9269.0,236.0,-1282.0,-820.0,3922.0
256,903013.0,-18436.0,-44137.0,-392713.0,-610822.0,-204310.0,257719.0,3505101.0,-5722.0,-12697.0,9269.0,236.0,-1282.0,-820.0,3922.0
257,902191.0,-17308.0,-43147.0,-391563.0,-609542.0,-203240.0,258558.0,3503653.0,-5722.0,-12697.0,9269.0,236.0,-1282.0,-820.0,3922.0
258,901124.0,-16533.0,-42572.0,-390871.0,-608610.0,-202547.0,259171.0,3502235.0,-5722.0,-12697.0,9269.0,236.0,-1282.0,-820.0,3922.0
259,900517.0,-16228.0,-41813.0,-389982.0,-607461.0,-201625.0,260088.0,3501251.0,-5722.0,-12697.0,9269.0,236.0,-1282.0,-820.0,3922.0
260,900051.0,-15072.0,-41067.0,-389245.0,-606517.0,-200934.0,260894.0,3500319.0,-5722.0,-12697.0,9269.0,236.0,-1282.0,-820.0,3922.0
261,899374.0,-12726.0,-39978.0,-388419.0,-605541.0,-200345.0,261592.0,3499168.0,-5722.0,-12697.0,9269.0,236.0,-1282.0,-820.0,3922.0
262,898734.0,-11067.0,-38736.0,-387427.0,-604327.0,-199501.0,262419.0,3498072.0,-5722.0,-12697.0,9269.0,236.0,-1282.0,-820.0,3922.0
263,898158.0,-9975.0,-37138.0,-386003.0,-602603.0,-198197.0,263633.0,3497278.0,-5786.0,-12732.0,9272.0,589.0,-1605.0,-517.0,3922.0
264,897401.0,-9045.0,-36024.0,-384907.0,-601139.0,-197002.0,264464.0,3496211.0,-5786.0,-12732.0,9272.0,589.0,-1605.0,-517.0,3922.0
265,896857.0,-8044.0,-35099.0,-384058.0,-599836.0,-195829.0,265244.0,3495144.0,-5786.0,-12732.0,9272.0,589.0,-1605.0,-517.0,3922.0
266,896458.0,-7259.0,-34894.0,-383801.0,-599209.0,-195364.0,265605.0,3493657.0,-5786.0,-12732.0,9272.0,589.0,-1605.0,-517.0,3922.0
267,896404.0,-6198.0,-33743.0,-382617.0,-597772.0,-194221.0,266601.0,3492415.0,-5786.0,-12732.0,9272.0,589.0,-1605.0,-517.0,3922.0
268,895951.0,-5773.0,-33347.0,-382309.0,-596994.0,-193799.0,267186.0,3491195.0,-5786.0,-12732.0,9272.0,589.0,-1605.0,-517.0,3922.0
269,895830.0,-5307.0,-32805.0,-381819.0,-596098.0,-193089.0,267841.0,3490284.0,-5786.0,-12732.0,9272.0,589.0,-1605.0,-517.0,3922.0
270,895731.0,-4737.0,-32014.0,-381198.0,-595144.0,-192315.0,268434.0,3489419.0,-5786.0,-12732.0,9272.0,589.0,-1605.0,-517.0,3922.0
271,895890.0,-3724.0,-31090.0,-380146.0,-593849.0,-191159.0,269421.0,3488604.0,-5786.0,-12732.0,9272.0,589.0,-1605.0,-517.0,3922.0
272,895726.0,-3054.0,-30594.0,-379660.0,-593179.0,-190616.0,269974.0,3487428.0,-5786.0,-12732.0,9272.0,589.0,-1605.0,-517.0,3922.0
273,895736.0,-1956.0,-29274.0,-378340.0,-591719.0,-189254.0,270961.0,3486623.0,-5868.0,-12773.0,9294.0,838.0,-2202.0,-324.0,3922.0
274,895698.0,-954.0,-28142.0,-377323.0,-590547.0,-187993.0,271711.0,3485915.0,-5868.0,-12773.0,9294.0,838.0,-2202.0,-324.0,3922.0
275,895739.0,-47.0,-27442.0,-376421.0,-589552.0,-186808.0,272371.0,3485123.0,-5868.0,-12773.0,9294.0,838.0,-2202.0,-324.0,3922.0
276,895486.0,735.0,-27416.0,-376076.0,-589186.0,-186131.0,272550.0,3484036.0,-5868.0,-12773.0,9294.0,838.0,-2202.0,-324.0,3922.0
277,895538.0,2005.0,-26882.0,-375140.0,-588403.0,-185081.0,273165.0,3483209.0,-5868.0,-12773.0,9294.0,838.0,-2202.0,-324.0,3922.0
278,895728.0,3535.0,-25894.0,-373852.0,-587267.0,-183813.0,274049.0,3482490.0,-5868.0,-12773.0,9294.0,838.0,-2202.0,-324.0,3922.0
279,895513.0,4611.0,-25677.0,-373172.0,-586704.0,-183099.0,274551.0,3481473.0,-5868.0,-12773.0,9294.0,838.0,-2202.0,-324.0,3922.0
280,895326.0,5947.0,-24833.0,-371892.0,-585687.0,-182123.0,275390.0,3480643.0,-5868.0,-12773.0,9294.0,838.0,-2202.0,-324.0,3922.0
281,894886.0,6857.0,-24547.0,-371085.0,-585151.0,-181567.0,275982.0,3479662.0,-5868.0,-12773.0,9294.0,838.0,-2202.0,-324.0,3922.0
282,894574.0,7878.0,-23983.0,-370104.0,-584434.0,-180879.0,276762.0,3478878.0,-5868.0,-12773.0,9294.0,838.0,-2202.0,-324.0,3922.0
283,894518.0,9465.0,-22671.0,-368512.0,-583139.0,-179609.0,277816.0,3478231.0,-5851.0,-12614.0,9332.0,1035.0,-2539.0,-409.0,3922.0
284,894211.0,10921.0,-21674.0,-367156.0,-582011.0,-178487.0,278548.0,3477199.0,-5851.0,-12614.0,9332.0,1035.0,-2539.0,-409.0,3922.0
285,893715.0,12353.0,-20839.0,-365909.0,-580951.0,-177522.0,279358.0,3476163.0,-5851.0,-12614.0,9332.0,1035.0,-2539.0,-409.0,3922.0
286,892949.0,13255.0,-21044.0,-365641.0,-580743.0,-177251.0,279729.0,3474980.0,-5851.0,-12614.0,9332.0,1035.0,-2539.0,-409.0,3922.0
287,892372.0,14613.0,-20269.0,-364653.0,-579931.0,-176481.0,280490.0,3473969.0,-5851.0,-12614.0,9332.0,1035.0,-2539.0,-409.0,3922.0
288,891853.0,16244.0,-18866.0,-363088.0,-578626.0,-175275.0,281593.0,3473054.0,-5851.0,-12614.0,9332.0,1035.0,-2539.0,-409.0,3922.0
289,891119.0,17383.0,-18109.0,-362119.0,-577812.0,-174486.0,282416.0,3471959.0,-5851.0,-12614.0,9332.0,1035.0,-2539.0,-409.0,3922.0
290,890554.0,18529.0,-16961.0,-360772.0,-576562.0,-173322.0,283498.0,3471091.0,-5851.0,-12614.0,9332.0,1035.0,-2539.0,-409.0,3922.0
291,889787.0,19233.0,-16499.0,-360081.0,-575972.0,-172752.0,284180.0,3470096.0,-5851.0,-12614.0,9332.0,1035.0,-2539.0,-409.0,3922.0
292,889076.0,20384.0,-15748.0,-359112.0,-575153.0,-172112.0,284901.0,3469149.0,-5851.0,-12614.0,9332.0,1035.0,-2539.0,-409.0,3922.0
293,888469.0,22255.0,-14622.0,-357709.0,-573871.0,-171001.0,285868.0,3468301.0,-5820.0,-12506.0,9485.0,715.0,-2495.0,-285.0,3922.0
294,887887.0,23256.0,-14274.0,-357014.0,-573218.0,-170204.0,286451.0,3467192.0,-5820.0,-12506.0,9485.0,715.0,-2495.0,-285.0,3922.0
295,887685.0,24642.0,-12975.0,-355374.0,-571447.0,-168317.0,287495.0,3466347.0,-5820.0,-12506.0,9485.0,715.0,-2495.0,-285.0,3922.0
296,887372.0,25754.0,-12272.0,-354329.0,-570307.0,-167098.0,288204.0,3465419.0,-5820.0,-12506.0,9485.0,715.0,-2495.0,-285.0,3922.0
297,886978.0,26823.0,-12056.0,-353941.0,-569789.0,-166544.0,288719.0,3464388.0,-5820.0,-12506.0,9485.0,715.0,-2495.0,-285.0,3922.0
298,886784.0,28175.0,-11242.0,-353524.0,-568924.0,-165674.0,289498.0,3463639.0,-5820.0,-12506.0,9485.0,715.0,-2495.0,-285.0,3922.0
299,886598.0,29578.0,-9959.0,-352369.0,-567533.0,-164471.0,290598.0,3463023.0,-5820.0,-12506.0,9485.0,715.0,-2495.0,-285.0,3922.0
300,886095.0,30603.0,-9749.0,-351931.0,-567059.0,-164159.0,291143.0,3462137.0,-5820.0,-12506.0,9485.0,715.0,-2495.0,-285.0,3922.0
301,885704.0,31776.0,-9109.0,-351129.0,-566295.0,-163639.0,291875.0,3461363.0,-5820.0,-12506.0,9485.0,715.0,-2495.0,-285.0,3922.0
302,885324.0,32884.0,-8471.0,-350242.0,-565439.0,-163014.0,292694.0,3460564.0,-5820.0,-12506.0,9485.0,715.0,-2495.0,-285.0,3922.0
303,885079.0,34087.0,-7666.0,-349202.0,-564419.0,-162185.0,293651.0,3459868.0,-5712.0,-12406.0,9782.0,425.0,-2146.0,-39.0,3922.0
304,885148.0,35482.0,-6539.0,-347791.0,-563118.0,-160912.0,294778.0,3459333.0,-5712.0,-12406.0,9782.0,425.0,-2146.0,-39.0,3922.0
305,885167.0,36682.0,-5908.0,-346848.0,-562234.0,-159912.0,295512.0,3458649.0,-5712.0,-12406.0,9782.0,425.0,-2146.0,-39.0,3922.0
306,885020.0,37547.0,-6026.0,-346660.0,-562037.0,-159504.0,295759.0,3457799.0,-5712.0,-12406.0,9782.0,425.0,-2146.0,-39.0,3922.0
307,885119.0,38783.0,-5444.0,-345908.0,-561346.0,-158852.0,296418.0,3457113.0,-5712.0,-12406.0,9782.0,425.0,-2146.0,-39.0,3922.0
308,885181.0,40139.0,-4730.0,-345094.0,-560541.0,-158039.0,297149.0,3456455.0,-5712.0,-12406.0,9782.0,425.0,-2146.0,-39.0,3922.0
309,885148.0,41334.0,-3756.0,-344024.0,-559444.0,-157032.0,298008.0,3455813.0,-5712.0,-12406.0,9782.0,425.0,-2146.0,-39.0,3922.0
310,884973.0,42292.0,-3054.0,-343089.0,-558454.0,-156217.0,298686.0,3455090.0,-5712.0,-12406.0,9782.0,425.0,-2146.0,-39.0,3922.0
311,884718.0,43256.0,-2234.0,-342204.0,-557331.0,-155552.0,299585.0,3454499.0,-5712.0,-12406.0,9782.0,425.0,-2146.0,-39.0,3922.0
312,884477.0,44363.0,-1019.0,-340799.0,-555885.0,-154591.0,300734.0,3453953.0,-5712.0,-12406.0,9782.0,425.0,-2146.0,-39.0,3922.0
313,883988.0,45212.0,-512.0,-339990.0,-555042.0,-153971.0,301450.0,3453068.0,-5485.0,-12292.0,9978.0,23.0,-2004.0,139.0,3922.0
314,883658.0,46335.0,136.0,-339151.0,-554188.0,-153251.0,302320.0,3452450.0,-5485.0,-12292.0,9978.0,23.0,-2004.0,139.0,3922.0
315,883581.0,47770.0,1524.0,-337766.0,-552789.0,-152082.0,303656.0,3452053.0,-5485.0,-12292.0,9978.0,23.0,-2004.0,139.0,3922.0
316,883204.0,48852.0,2328.0,-336757.0,-551821.0,-151328.0,304487.0,3451338.0,-5485.0,-12292.0,9978.0,23.0,-2004.0,139.0,3922.0
317,882741.0,49756.0,2704.0,-336130.0,-551236.0,-150831.0,305120.0,3450540.0,-5485.0,-12292.0,9978.0,23.0,-2004.0,139.0,3922.0
318,882600.0,51036.0,3708.0,-334852.0,-550136.0,-149975.0,306141.0,3450092.0,-5485.0,-12292.0,9978.0,23.0,-2004.0,139.0,3922.0
319,882376.0,52230.0,4575.0,-333751.0,-549194.0,-149189.0,307078.0,3449563.0,-5485.0,-12292.0,9978.0,23.0,-2004.0,139.0,3922.0
320,882081.0,53242.0,4956.0,-333255.0,-548806.0,-148665.0,307799.0,3448863.0,-5485.0,-12292.0,9978.0,23.0,-2004.0,139.0,3922.0
321,881676.0,54055.0,5089.0,-332918.0,-548576.0,-148366.0,308219.0,3448163.0,-5485.0,-12292.0,9978.0,23.0,-2004.0,139.0,3922.0
322,881423.0,55282.0,5734.0,-332323.0,-547940.0,-147796.0,308779.0,3447646.0,-5485.0,-12292.0,9978.0,23.0,-2004.0,139.0,3922.0
323,881148.0,56471.0,6438.0,-331739.0,-547247.0,-147122.0,309976.0,3447216.0,-5261.0,-12262.0,9949.0,-243.0,-2117.0,66.0,3922.0
324,881123.0,57843.0,7704.0,-331184.0,-546104.0,-146122.0,311081.0,3446756.0,-5261.0,-12262.0,9949.0,-243.0,-2117.0,66.0,3922.0
325,880945.0,59063.0,9104.0,-330286.0,-544759.0,-145126.0,312202.0,3446210.0,-5261.0,-12262.0,9949.0,-243.0,-2117.0,66.0,3922.0
326,880528.0,59891.0,10006.0,-329413.0,-543785.0,-144500.0,313119.0,3445350.0,-5261.0,-12262.0,9949.0,-243.0,-2117.0,66.0,3922.0
327,880113.0,60745.0,10944.0,-328579.0,-542766.0,-143832.0,314029.0,3444568.0,-5261.0,-12262.0,9949.0,-243.0,-2117.0,66.0,3922.0
328,879527.0,61451.0,11826.0,-327850.0,-541754.0,-143212.0,314976.0,3443899.0,-5261.0,-12262.0,9949.0,-243.0,-2117.0,66.0,3922.0
329,878975.0,62007.0,12641.0,-327402.0,-540831.0,-142617.0,315962.0,3443330.0,-5261.0,-12262.0,9949.0,-243.0,-2117.0,66.0,3922.0
330,878308.0,62446.0,13131.0,-327307.0,-540247.0,-142367.0,316688.0,3442569.0,-5261.0,-12262.0,9949.0,-243.0,-2117.0,66.0,3922.0
331,877824.0,63422.0,14489.0,-326191.0,-538948.0,-141627.0,317900.0,3441910.0,-5261.0,-12262.0,9949.0,-243.0,-2117.0,66.0,3922.0
332,877201.0,64253.0,15405.0,-325331.0,-537992.0,-141172.0,318758.0,3440990.0,-5261.0,-12262.0,9949.0,-243.0,-2117.0,66.0,3922.0
333,876771.0,65479.0,16982.0,-324073.0,-536374.0,-140079.0,320045.0,3440254.0,-5145.0,-12383.0,9853.0,-67.0,-2317.0,-169.0,3922.0
334,876109.0,66428.0,17927.0,-323226.0,-535185.0,-139183.0,321095.0,3439368.0,-5145.0,-12383.0,9853.0,-67.0,-2317.0,-169.0,3922.0
335,875328.0,67432.0,19069.0,-322116.0,-533859.0,-138140.0,322172.0,3438534.0,-5145.0,-12383.0,9853.0,-67.0,-2317.0,-169.0,3922.0
336,874630.0,68543.0,19925.0,-321371.0,-532902.0,-137322.0,322916.0,3437642.0,-5145.0,-12383.0,9853.0,-67.0,-2317.0,-169.0,3922.0
337,874142.0,69711.0,20795.0,-320549.0,-531884.0,-136488.0,323746.0,3436882.0,-5145.0,-12383.0,9853.0,-67.0,-2317.0,-169.0,3922.0
338,873744.0,70764.0,21565.0,-319770.0,-530907.0,-135681.0,324572.0,3436116.0,-5145.0,-12383.0,9853.0,-67.0,-2317.0,-169.0,3922.0
339,873473.0,71808.0,22359.0,-319017.0,-529925.0,-134890.0,325378.0,3435366.0,-5145.0,-12383.0,9853.0,-67.0,-2317.0,-169.0,3922.0
340,873141.0,72821.0,23062.0,-318256.0,-529008.0,-134162.0,326088.0,3434526.0,-5145.0,-12383.0,9853.0,-67.0,-2317.0,-169.0,3922.0
341,872863.0,73926.0,23850.0,-317374.0,-528044.0,-133397.0,326946.0,3433743.0,-5145.0,-12383.0,9853.0,-67.0,-2317.0,-169.0,3922.0
342,872313.0,74993.0,24586.0,-316432.0,-527022.0,-132581.0,327733.0,3432951.0,-5145.0,-12383.0,9853.0,-67.0,-2317.0,-169.0,3922.0
343,871663.0,75900.0,24757.0,-315907.0,-526469.0,-132170.0,328237.0,3432103.0,-5096.0,-12543.0,9856.0,612.0,-2166.0,-284.0,3922.0
344,871404.0,77019.0,24989.0,-315284.0,-525832.0,-131563.0,328927.0,3431499.0,-5096.0,-12543.0,9856.0,612.0,-2166.0,-284.0,3922.0
345,871453.0,78538.0,26123.0,-313940.0,-524449.0,-130231.0,330048.0,3431024.0,-5096.0,-12543.0,9856.0,612.0,-2166.0,-284.0,3922.0
346,871198.0,79378.0,26060.0,-313596.0,-523972.0,-129679.0,330521.0,3430200.0,-5096.0,-12543.0,9856.0,612.0,-2166.0,-284.0,3922.0
347,871232.0,80786.0,26871.0,-312489.0,-522737.0,-128472.0,331243.0,3429481.0,-5096.0,-12543.0,9856.0,612.0,-2166.0,-284.0,3922.0
348,871076.0,82089.0,27519.0,-311532.0,-521606.0,-127395.0,331746.0,3428688.0,-5096.0,-12543.0,9856.0,612.0,-2166.0,-284.0,3922.0
349,870621.0,82933.0,27541.0,-311182.0,-521060.0,-126917.0,332269.0,3427969.0,-5096.0,-12543.0,9856.0,612.0,-2166.0,-284.0,3922.0
350,870414.0,83974.0,28151.0,-310399.0,-520111.0,-126197.0,333076.0,3427397.0,-5096.0,-12543.0,9856.0,612.0,-2166.0,-284.0,3922.0
351,870038.0,84747.0,28498.0,-309896.0,-519372.0,-125752.0,333698.0,3426637.0,-5096.0,-12543.0,9856.0,612.0,-2166.0,-284.0,3922.0
352,869674.0,85759.0,29225.0,-308901.0,-518219.0,-124862.0,334409.0,3425796.0,-5096.0,-12543.0,9856.0,612.0,-2166.0,-284.0,3922.0
353,869466.0,86940.0,30088.0,-307767.0,-516911.0,-123839.0,335301.0,3425092.0,-5089.0,-12480.0,9997.0,650.0,-1934.0,-391.0,3922.0
354,869522.0,88319.0,31253.0,-306519.0,-515347.0,-122429.0,336425.0,3424689.0,-5089.0,-12480.0,9997.0,650.0,-1934.0,-391.0,3922.0
355,869558.0,89418.0,31883.0,-305745.0,-514207.0,-121291.0,337281.0,3424239.0,-5089.0,-12480.0,9997.0,650.0,-1934.0,-391.0,3922.0
356,869253.0,90096.0,31676.0,-305509.0,-513722.0,-120639.0,337491.0,3423314.0,-5089.0,-12480.0,9997.0,650.0,-1934.0,-391.0,3922.0
357,869343.0,91108.0,32059.0,-304747.0,-512761.0,-119514.0,338035.0,3422594.0,-5089.0,-12480.0,9997.0,650.0,-1934.0,-391.0,3922.0
358,869553.0,92283.0,32929.0,-303512.0,-511374.0,-118079.0,338881.0,3422164.0,-5089.0,-12480.0,9997.0,650.0,-1934.0,-391.0,3922.0
359,869718.0,93275.0,33231.0,-302780.0,-510560.0,-117261.0,339494.0,3421788.0,-5089.0,-12480.0,9997.0,650.0,-1934.0,-391.0,3922.0
360,869956.0,94083.0,33506.0,-302056.0,-509826.0,-116631.0,340044.0,3421358.0,-5089.0,-12480.0,9997.0,650.0,-1934.0,-391.0,3922.0
361,870026.0,94864.0,34140.0,-301114.0,-508849.0,-115871.0,340749.0,3420911.0,-5089.0,-12480.0,9997.0,650.0,-1934.0,-391.0,3922.0
362,870013.0,95575.0,34467.0,-300418.0,-507976.0,-115168.0,341300.0,3420296.0,-5089.0,-12480.0,9997.0,650.0,-1934.0,-391.0,3922.0
363,869933.0,96004.0,34505.0,-299881.0,-507277.0,-114522.0,341688.0,3419575.0,-5095.0,-12339.0,10194.0,309.0,-1774.0,-440.0,3922.0
364,870178.0,97038.0,35496.0,-298457.0,-505786.0,-113128.0,342511.0,3419136.0,-5095.0,-12339.0,10194.0,309.0,-1774.0,-440.0,3922.0
365,870292.0,98120.0,36163.0,-297290.0,-504546.0,-111843.0,343220.0,3418664.0,-5095.0,-12339.0,10194.0,309.0,-1774.0,-440.0,3922.0
366,870315.0,98849.0,36128.0,-296665.0,-503889.0,-111073.0,343573.0,3418034.0,-5095.0,-12339.0,10194.0,309.0,-1774.0,-440.0,3922.0
367,870464.0,99569.0,36298.0,-295807.0,-503088.0,-110215.0,344148.0,3417498.0,-5095.0,-12339.0,10194.0,309.0,-1774.0,-440.0,3922.0
368,870682.0,100400.0,36432.0,-295054.0,-502456.0,-109562.0,344604.0,3416923.0,-5095.0,-12339.0,10194.0,309.0,-1774.0,-440.0,3922.0
369,870911.0,101416.0,36750.0,-294176.0,-501795.0,-108939.0,345014.0,3416398.0,-5095.0,-12339.0,10194.0,309.0,-1774.0,-440.0,3922.0
370,870883.0,102228.0,36632.0,-293686.0,-501508.0,-108621.0,345161.0,3415759.0,-5095.0,-12339.0,10194.0,309.0,-1774.0,-440.0,3922.0
371,870974.0,103276.0,37233.0,-292501.0,-500522.0,-107657.0,345836.0,3415428.0,-5095.0,-12339.0,10194.0,309.0,-1774.0,-440.0,3922.0
372,870810.0,104026.0,37564.0,-291646.0,-499774.0,-107017.0,346224.0,3414786.0,-5095.0,-12339.0,10194.0,309.0,-1774.0,-440.0,3922.0
373,870983.0,105163.0,38709.0,-290102.0,-498415.0,-105826.0,347122.0,3414479.0,-4981.0,-12249.0,10287.0,-175.0,-1494.0,-539.0,3922.0
374,871127.0,106147.0,39682.0,-288794.0,-497198.0,-104717.0,347899.0,3414068.0,-4981.0,-12249.0,10287.0,-175.0,-1494.0,-539.0,3922.0
375,871214.0,107118.0,40714.0,-287464.0,-495926.0,-103589.0,348593.0,3413516.0,-4981.0,-12249.0,10287.0,-175.0,-1494.0,-539.0,3922.0
376,871135.0,107818.0,41224.0,-286593.0,-495082.0,-102908.0,349046.0,3412909.0,-4981.0,-12249.0,10287.0,-175.0,-1494.0,-539.0,3922.0
377,871147.0,108582.0,41752.0,-285729.0,-494292.0,-102285.0,349556.0,3412312.0,-4981.0,-12249.0,10287.0,-175.0,-1494.0,-539.0,3922.0
378,871059.0,109073.0,41779.0,-285326.0,-493976.0,-101992.0,349784.0,3411576.0,-4981.0,-12249.0,10287.0,-175.0,-1494.0,-539.0,3922.0
379,871169.0,109947.0,42768.0,-284053.0,-492885.0,-101072.0,350579.0,3411115.0,-4981.0,-12249.0,10287.0,-175.0,-1494.0,-539.0,3922.0
380,871073.0,110742.0,43651.0,-282949.0,-491832.0,-100222.0,351279.0,3410523.0,-4981.0,-12249.0,10287.0,-175.0,-1494.0,-539.0,3922.0
381,870687.0,111401.0,43958.0,-282387.0,-491258.0,-99774.0,351647.0,3409656.0,-4981.0,-12249.0,10287.0,-175.0,-1494.0,-539.0,3922.0
382,870425.0,112322.0,44587.0,-281433.0,-490501.0,-99121.0,352111.0,3408846.0,-4981.0,-12249.0,10287.0,-175.0,-1494.0,-539.0,3922.0
383,870416.0,113570.0,45856.0,-279818.0,-489137.0,-97903.0,353056.0,3408360.0,-4772.0,-12317.0,10328.0,-503.0,-1164.0,-555.0,3922.0
384,870278.0,114717.0,46853.0,-278412.0,-488009.0,-96834.0,353770.0,3407869.0,-4772.0,-12317.0,10328.0,-503.0,-1164.0,-555.0,3922.0
385,870024.0,115783.0,47797.0,-277135.0,-486991.0,-95868.0,354421.0,3407318.0,-4772.0,-12317.0,10328.0,-503.0,-1164.0,-555.0,3922.0
386,869556.0,116546.0,48133.0,-276392.0,-486455.0,-95287.0,354584.0,3406271.0,-4772.0,-12317.0,10328.0,-503.0,-1164.0,-555.0,3922.0
387,869383.0,117686.0,49162.0,-275030.0,-485281.0,-94199.0,355344.0,3405671.0,-4772.0,-12317.0,10328.0,-503.0,-1164.0,-555.0,3922.0
388,868918.0,118305.0,49555.0,-274282.0,-484669.0,-93728.0,355741.0,3404983.0,-4772.0,-12317.0,10328.0,-503.0,-1164.0,-555.0,3922.0
389,868409.0,118976.0,50292.0,-273242.0,-483822.0,-93114.0,356421.0,3404293.0,-4772.0,-12317.0,10328.0,-503.0,-1164.0,-555.0,3922.0
390,867916.0,119764.0,51308.0,-271995.0,-482740.0,-92401.0,357193.0,3403613.0,-4772.0,-12317.0,10328.0,-503.0,-1164.0,-555.0,3922.0
391,867368.0,120529.0,52361.0,-270744.0,-481621.0,-91649.0,357952.0,3402911.0,-4772.0,-12317.0,10328.0,-503.0,-1164.0,-555.0,3922.0
392,866708.0,121218.0,53389.0,-269492.0,-480487.0,-90864.0,358604.0,3402120.0,-4772.0,-12317.0,10328.0,-503.0,-1164.0,-555.0,3922.0
393,866101.0,122012.0,54554.0,-268111.0,-479164.0,-89912.0,359327.0,3401319.0,-4492.0,-12582.0,10351.0,-152.0,-868.0,-434.0,3922.0
394,865684.0,123096.0,56023.0,-266469.0,-477544.0,-88564.0,360299.0,3400718.0,-4492.0,-12582.0,10351.0,-152.0,-868.0,-434.0,3922.0
395,865306.0,124050.0,57143.0,-265106.0,-476219.0,-87301.0,361129.0,3400121.0,-4492.0,-12582.0,10351.0,-152.0,-868.0,-434.0,3922.0
396,864924.0,124700.0,57469.0,-264343.0,-475505.0,-86437.0,361575.0,3399478.0,-4492.0,-12582.0,10351.0,-152.0,-868.0,-434.0,3922.0
397,864526.0,125316.0,57625.0,-263716.0,-474987.0,-85648.0,361919.0,3398797.0,-4492.0,-12582.0,10351.0,-152.0,-868.0,-434.0,3922.0
398,864396.0,126301.0,58329.0,-262536.0,-474021.0,-84441.0,362445.0,3398184.0,-4492.0,-12582.0,10351.0,-152.0,-868.0,-434.0,3922.0
399,863942.0,127003.0,58812.0,-261572.0,-473216.0,-83466.0,362648.0,3397382.0,-4492.0,-12582.0,10351.0,-152.0,-868.0,-434.0,3922.0
400,863622.0,127879.0,59759.0,-260197.0,-471979.0,-82179.0,363258.0,3396811.0,-4492.0,-12582.0,10351.0,-152.0,-868.0,-434.0,3922.0
401,863186.0,128577.0,60621.0,-258993.0,-470855.0,-81103.0,363781.0,3396207.0,-4492.0,-12582.0,10351.0,-152.0,-868.0,-434.0,3922.0
402,862573.0,129010.0,60831.0,-258440.0,-470343.0,-80587.0,363968.0,3395456.0,-4492.0,-12582.0,10351.0,-152.0,-868.0,-434.0,3922.0
403,862204.0,129878.0,61665.0,-257355.0,-469359.0,-79647.0,364425.0,3394838.0,-4362.0,-12790.0,10372.0,314.0,-448.0,-48.0,3922.0
404,862187.0,131143.0,62968.0,-255844.0,-467887.0,-78231.0,365154.0,3394379.0,-4362.0,-12790.0,10372.0,314.0,-448.0,-48.0,3922.0
405,862096.0,132149.0,63749.0,-254796.0,-466796.0,-77034.0,365598.0,3393774.0,-4362.0,-12790.0,10372.0,314.0,-448.0,-48.0,3922.0
406,861769.0,132654.0,63639.0,-254505.0,-466449.0,-76426.0,365575.0,3392929.0,-4362.0,-12790.0,10372.0,314.0,-448.0,-48.0,3922.0
407,861803.0,133694.0,64410.0,-253315.0,-465376.0,-75126.0,366149.0,3392432.0,-4362.0,-12790.0,10372.0,314.0,-448.0,-48.0,3922.0
408,861669.0,134532.0,64707.0,-252557.0,-464747.0,-74216.0,366341.0,3391775.0,-4362.0,-12790.0,10372.0,314.0,-448.0,-48.0,3922.0
409,861709.0,135801.0,65739.0,-251083.0,-463469.0,-72785.0,366776.0,3391292.0,-4362.0,-12790.0,10372.0,314.0,-448.0,-48.0,3922.0
410,861472.0,136704.0,65953.0,-250332.0,-462930.0,-72000.0,367014.0,3390601.0,-4362.0,-12790.0,10372.0,314.0,-448.0,-48.0,3922.0
411,861372.0,137828.0,66724.0,-249077.0,-461894.0,-70889.0,367706.0,3390191.0,-4362.0,-12790.0,10372.0,314.0,-448.0,-48.0,3922.0
412,860996.0,138583.0,66721.0,-248537.0,-461531.0,-70411.0,367952.0,3389563.0,-4362.0,-12790.0,10372.0,314.0,-448.0,-48.0,3922.0
413,860729.0,139709.0,67283.0,-247621.0,-460811.0,-69655.0,368353.0,3388809.0,-4436.0,-12695.0,10441.0,189.0,-180.0,149.0,3922.0
414,860583.0,140891.0,68019.0,-246575.0,-459884.0,-68716.0,368823.0,3388136.0,-4436.0,-12695.0,10441.0,189.0,-180.0,149.0,3922.0
415,860686.0,142290.0,69132.0,-245196.0,-458602.0,-67397.0,369664.0,3387803.0,-4436.0,-12695.0,10441.0,189.0,-180.0,149.0,3922.0
416,860541.0,143270.0,69539.0,-244444.0,-457901.0,-66565.0,370134.0,3387269.0,-4436.0,-12695.0,10441.0,189.0,-180.0,149.0,3922.0
417,860174.0,144001.0,69708.0,-243959.0,-457461.0,-66004.0,370398.0,3386554.0,-4436.0,-12695.0,10441.0,189.0,-180.0,149.0,3922.0
418,859914.0,144935.0,70399.0,-243062.0,-456664.0,-65167.0,370858.0,3385938.0,-4436.0,-12695.0,10441.0,189.0,-180.0,149.0,3922.0
419,859814.0,146176.0,71734.0,-241599.0,-455310.0,-63861.0,371744.0,3385561.0,-4436.0,-12695.0,10441.0,189.0,-180.0,149.0,3922.0
420,859396.0,147087.0,72578.0,-240520.0,-454366.0,-62954.0,372349.0,3385078.0,-4436.0,-12695.0,10441.0,189.0,-180.0,149.0,3922.0
421,858912.0,147680.0,72969.0,-239875.0,-453820.0,-62401.0,372648.0,3384332.0,-4436.0,-12695.0,10441.0,189.0,-180.0,149.0,3922.0
422,858883.0,148297.0,74082.0,-238544.0,-452632.0,-61287.0,373361.0,3383793.0,-4436.0,-12695.0,10441.0,189.0,-180.0,149.0,3922.0
423,859064.0,148896.0,74643.0,-237679.0,-451822.0,-60425.0,373965.0,3383353.0,-4538.0,-12509.0,10472.0,-205.0,-164.0,346.0,3922.0
424,859149.0,149663.0,74888.0,-237193.0,-451394.0,-59844.0,374213.0,3382798.0,-4538.0,-12509.0,10472.0,-205.0,-164.0,346.0,3922.0
425,859410.0,150907.0,75891.0,-235930.0,-450266.0,-58564.0,375020.0,3382662.0,-4538.0,-12509.0,10472.0,-205.0,-164.0,346.0,3922.0
426,859553.0,151698.0,75891.0,-235449.0,-449856.0,-57877.0,375348.0,3382234.0,-4538.0,-12509.0,10472.0,-205.0,-164.0,346.0,3922.0
427,859733.0,152522.0,76123.0,-234807.0,-449252.0,-57132.0,375734.0,3381751.0,-4538.0,-12509.0,10472.0,-205.0,-164.0,346.0,3922.0
428,859726.0,153274.0,76535.0,-234081.0,-448581.0,-56389.0,376186.0,3381318.0,-4538.0,-12509.0,10472.0,-205.0,-164.0,346.0,3922.0
429,859637.0,154044.0,76746.0,-233544.0,-448151.0,-55947.0,376527.0,3380729.0,-4538.0,-12509.0,10472.0,-205.0,-164.0,346.0,3922.0
430,859743.0,155289.0,77664.0,-232396.0,-447175.0,-55164.0,377276.0,3380318.0,-4538.0,-12509.0,10472.0,-205.0,-164.0,346.0,3922.0
431,859636.0,156226.0,78158.0,-231617.0,-446611.0,-54796.0,377801.0,3379701.0,-4538.0,-12509.0,10472.0,-205.0,-164.0,346.0,3922.0
432,859659.0,157441.0,79119.0,-230434.0,-445619.0,-54083.0,378573.0,3379224.0,-4538.0,-12509.0,10472.0,-205.0,-164.0,346.0,3922.0
433,859541.0,158432.0,79546.0,-229779.0,-445113.0,-53696.0,379021.0,3378611.0,-4503.0,-12344.0,10500.0,-370.0,119.0,548.0,3922.0
434,859673.0,159815.0,80659.0,-228474.0,-443931.0,-52633.0,379887.0,3378142.0,-4503.0,-12344.0,10500.0,-370.0,119.0,548.0,3922.0
435,859748.0,161213.0,81708.0,-227221.0,-442776.0,-51552.0,380744.0,3377645.0,-4503.0,-12344.0,10500.0,-370.0,119.0,548.0,3922.0
436,859656.0,162334.0,82075.0,-226560.0,-442210.0,-50979.0,381139.0,3376921.0,-4503.0,-12344.0,10500.0,-370.0,119.0,548.0,3922.0
437,859440.0,163314.0,82156.0,-226175.0,-441876.0,-50572.0,381385.0,3376041.0,-4503.0,-12344.0,10500.0,-370.0,119.0,548.0,3922.0
438,859306.0,164342.0,82576.0,-225622.0,-441291.0,-50084.0,381847.0,3375342.0,-4503.0,-12344.0,10500.0,-370.0,119.0,548.0,3922.0
439,859208.0,165474.0,83377.0,-224660.0,-440351.0,-49426.0,382601.0,3374825.0,-4503.0,-12344.0,10500.0,-370.0,119.0,548.0,3922.0
440,859158.0,166733.0,84409.0,-223506.0,-439287.0,-48687.0,383527.0,3374398.0,-4503.0,-12344.0,10500.0,-370.0,119.0,548.0,3922.0
441,858842.0,167590.0,84913.0,-222872.0,-438697.0,-48345.0,384091.0,3373711.0,-4503.0,-12344.0,10500.0,-370.0,119.0,548.0,3922.0
442,858787.0,168716.0,86131.0,-221621.0,-437526.0,-47474.0,385034.0,3373248.0,-4503.0,-12344.0,10500.0,-370.0,119.0,548.0,3922.0
443,858604.0,169637.0,86713.0,-220956.0,-436852.0,-46934.0,385608.0,3372609.0,-4551.0,-12383.0,10446.0,-588.0,118.0,758.0,3922.0
444,858640.0,171015.0,88019.0,-219632.0,-435522.0,-45741.0,386439.0,3372099.0,-4551.0,-12383.0,10446.0,-588.0,118.0,758.0,3922.0
445,858594.0,172196.0,88999.0,-218552.0,-434431.0,-44633.0,387071.0,3371411.0,-4551.0,-12383.0,10446.0,-588.0,118.0,758.0,3922.0
446,858308.0,172858.0,88896.0,-218418.0,-434273.0,-44315.0,387239.0,3370685.0,-4551.0,-12383.0,10446.0,-588.0,118.0,758.0,3922.0
447,858283.0,173759.0,89194.0,-217973.0,-433819.0,-43699.0,387791.0,3370308.0,-4551.0,-12383.0,10446.0,-588.0,118.0,758.0,3922.0
448,858397.0,174764.0,89709.0,-217444.0,-433199.0,-43033.0,388410.0,3369962.0,-4551.0,-12383.0,10446.0,-588.0,118.0,758.0,3922.0
449,858595.0,176001.0,90879.0,-216305.0,-432037.0,-41988.0,389378.0,3369691.0,-4551.0,-12383.0,10446.0,-588.0,118.0,758.0,3922.0
450,858609.0,176964.0,91599.0,-215544.0,-431259.0,-41315.0,390040.0,3369193.0,-4551.0,-12383.0,10446.0,-588.0,118.0,758.0,3922.0
451,858273.0,177682.0,91780.0,-215215.0,-430984.0,-41206.0,390420.0,3368529.0,-4551.0,-12383.0,10446.0,-588.0,118.0,758.0,3922.0
452,857925.0,178564.0,92364.0,-214497.0,-430389.0,-40838.0,391026.0,3367886.0,-4551.0,-12383.0,10446.0,-588.0,118.0,758.0,3922.0
453,857697.0,179608.0,93316.0,-213429.0,-429443.0,-40053.0,391826.0,3367352.0,-4434.0,-12507.0,10355.0,-211.0,280.0,896.0,3922.0
454,857603.0,180861.0,94747.0,-211876.0,-428000.0,-38837.0,392761.0,3366971.0,-4434.0,-12507.0,10355.0,-211.0,280.0,896.0,3922.0
455,857291.0,181737.0,95472.0,-210917.0,-427064.0,-37946.0,393407.0,3366449.0,-4434.0,-12507.0,10355.0,-211.0,280.0,896.0,3922.0
456,856766.0,182192.0,95354.0,-210751.0,-426857.0,-37657.0,393724.0,3365603.0,-4434.0,-12507.0,10355.0,-211.0,280.0,896.0,3922.0
457,856529.0,183062.0,95834.0,-210036.0,-426167.0,-36974.0,394225.0,3364888.0,-4434.0,-12507.0,10355.0,-211.0,280.0,896.0,3922.0
458,856321.0,183994.0,96466.0,-209214.0,-425353.0,-36217.0,394838.0,3364230.0,-4434.0,-12507.0,10355.0,-211.0,280.0,896.0,3922.0
459,856230.0,185238.0,97684.0,-207852.0,-424022.0,-35101.0,395820.0,3363705.0,-4434.0,-12507.0,10355.0,-211.0,280.0,896.0,3922.0
460,855913.0,186024.0,98435.0,-206921.0,-423171.0,-34406.0,396462.0,3363009.0,-4434.0,-12507.0,10355.0,-211.0,280.0,896.0,3922.0
461,855445.0,186464.0,98971.0,-206349.0,-422511.0,-33945.0,396688.0,3361950.0,-4434.0,-12507.0,10355.0,-211.0,280.0,896.0,3922.0
462,855144.0,187384.0,99603.0,-205767.0,-421587.0,-33182.0,397543.0,3361417.0,-4434.0,-12507.0,10355.0,-211.0,280.0,896.0,3922.0
463,855151.0,188628.0,100599.0,-204614.0,-420369.0,-32262.0,398744.0,3361225.0,-4293.0,-12587.0,10320.0,266.0,378.0,1215.0,3922.0
464,855025.0,189674.0,100990.0,-203817.0,-419651.0,-31553.0,399169.0,3360472.0,-4293.0,-12587.0,10320.0,266.0,378.0,1215.0,3922.0
465,855144.0,191018.0,101938.0,-202470.0,-418398.0,-30279.0,399949.0,3359968.0,-4293.0,-12587.0,10320.0,266.0,378.0,1215.0,3922.0
466,855094.0,192041.0,102308.0,-201712.0,-417716.0,-29477.0,400303.0,3359300.0,-4293.0,-12587.0,10320.0,266.0,378.0,1215.0,3922.0
467,855057.0,193153.0,102893.0,-200833.0,-416982.0,-28653.0,400842.0,3358719.0,-4293.0,-12587.0,10320.0,266.0,378.0,1215.0,3922.0
468,854784.0,194090.0,103244.0,-200086.0,-416409.0,-28112.0,401383.0,3358204.0,-4293.0,-12587.0,10320.0,266.0,378.0,1215.0,3922.0
469,854498.0,194908.0,103329.0,-199608.0,-416096.0,-27869.0,401804.0,3357728.0,-4293.0,-12587.0,10320.0,266.0,378.0,1215.0,3922.0
470,854594.0,196215.0,104222.0,-198467.0,-415087.0,-27023.0,402548.0,3357336.0,-4293.0,-12587.0,10320.0,266.0,378.0,1215.0,3922.0
471,854619.0,197419.0,104918.0,-197460.0,-414219.0,-26377.0,403174.0,3356855.0,-4293.0,-12587.0,10320.0,266.0,378.0,1215.0,3922.0
472,854636.0,198534.0,105363.0,-196779.0,-413663.0,-26090.0,403666.0,3356286.0,-4293.0,-12587.0,10320.0,266.0,378.0,1215.0,3922.0
473,854603.0,199454.0,105584.0,-196322.0,-413307.0,-25864.0,404009.0,3355616.0,-4424.0,-12499.0,10312.0,98.0,324.0,1303.0,3922.0
474,854784.0,200857.0,106613.0,-195094.0,-412207.0,-24876.0,404847.0,3355228.0,-4424.0,-12499.0,10312.0,98.0,324.0,1303.0,3922.0
475,854919.0,202144.0,107212.0,-194376.0,-411360.0,-23966.0,405490.0,3354817.0,-4424.0,-12499.0,10312.0,98.0,324.0,1303.0,3922.0
476,854971.0,202957.0,106980.0,-194519.0,-411243.0,-23606.0,405721.0,3354230.0,-4424.0,-12499.0,10312.0,98.0,324.0,1303.0,3922.0
477,854965.0,203576.0,106911.0,-194302.0,-411126.0,-23388.0,406006.0,3353624.0,-4424.0,-12499.0,10312.0,98.0,324.0,1303.0,3922.0
478,855167.0,204733.0,107883.0,-193251.0,-410150.0,-22494.0,406858.0,3353395.0,-4424.0,-12499.0,10312.0,98.0,324.0,1303.0,3922.0
479,855143.0,205734.0,108753.0,-192364.0,-409336.0,-21869.0,407621.0,3353050.0,-4424.0,-12499.0,10312.0,98.0,324.0,1303.0,3922.0
480,854957.0,206431.0,109022.0,-191898.0,-409004.0,-21714.0,407989.0,3352383.0,-4424.0,-12499.0,10312.0,98.0,324.0,1303.0,3922.0
481,855026.0,207634.0,110088.0,-190776.0,-408059.0,-21096.0,408819.0,3351875.0,-4424.0,-12499.0,10312.0,98.0,324.0,1303.0,3922.0
482,854813.0,208426.0,110528.0,-190232.0,-407591.0,-20925.0,409314.0,3351206.0,-4424.0,-12499.0,10312.0,98.0,324.0,1303.0,3922.0
483,854763.0,209324.0,111196.0,-189663.0,-406848.0,-20404.0,409929.0,3350603.0,-4624.0,-12406.0,10391.0,-374.0,72.0,1441.0,3922.0
484,854921.0,210589.0,112685.0,-188682.0,-405402.0,-19265.0,411025.0,3350198.0,-4624.0,-12406.0,10391.0,-374.0,72.0,1441.0,3922.0
485,855036.0,211710.0,113804.0,-187588.0,-404249.0,-18217.0,411908.0,3349754.0,-4624.0,-12406.0,10391.0,-374.0,72.0,1441.0,3922.0
486,855091.0,212606.0,114311.0,-186985.0,-403746.0,-17657.0,412398.0,3349269.0,-4624.0,-12406.0,10391.0,-374.0,72.0,1441.0,3922.0
487,855204.0,213519.0,114646.0,-186622.0,-403491.0,-17281.0,412916.0,3348916.0,-4624.0,-12406.0,10391.0,-374.0,72.0,1441.0,3922.0
488,855161.0,214251.0,114765.0,-186329.0,-403327.0,-17091.0,413249.0,3348284.0,-4624.0,-12406.0,10391.0,-374.0,72.0,1441.0,3922.0
489,855436.0,215421.0,115868.0,-185151.0,-402255.0,-16156.0,414036.0,3347841.0,-4624.0,-12406.0,10391.0,-374.0,72.0,1441.0,3922.0
490,855413.0,216414.0,116583.0,-184301.0,-401425.0,-15510.0,414666.0,3347303.0,-4624.0,-12406.0,10391.0,-374.0,72.0,1441.0,3922.0
491,855214.0,217200.0,116757.0,-183985.0,-401049.0,-15163.0,415013.0,3346652.0,-4624.0,-12406.0,10391.0,-374.0,72.0,1441.0,3922.0
492,855385.0,218214.0,117340.0,-183239.0,-400347.0,-14342.0,415445.0,3346173.0,-4624.0,-12406.0,10391.0,-374.0,72.0,1441.0,3922.0
493,855780.0,219266.0,118301.0,-182082.0,-399262.0,-13297.0,416169.0,3345890.0,-4848.0,-12483.0,10482.0,-514.0,-32.0,1976.0,3922.0
494,856130.0,220039.0,118519.0,-181595.0,-398831.0,-12773.0,416408.0,3345441.0,-4848.0,-12483.0,10482.0,-514.0,-32.0,1976.0,3922.0
495,856746.0,221242.0,119566.0,-180346.0,-397668.0,-11556.0,417011.0,3345194.0,-4848.0,-12483.0,10482.0,-514.0,-32.0,1976.0,3922.0
496,857106.0,221765.0,119427.0,-180041.0,-397461.0,-11197.0,417122.0,3344706.0,-4848.0,-12483.0,10482.0,-514.0,-32.0,1976.0,3922.0
497,857776.0,222626.0,120056.0,-179087.0,-396614.0,-10251.0,417730.0,3344499.0,-4848.0,-12483.0,10482.0,-514.0,-32.0,1976.0,3922.0
498,858349.0,223436.0,120298.0,-178557.0,-396074.0,-9534.0,418043.0,3344143.0,-4848.0,-12483.0,10482.0,-514.0,-32.0,1976.0,3922.0
499,858834.0,224086.0,119959.0,-178631.0,-396064.0,-9236.0,418033.0,3343692.0,-4848.0,-12483.0,10482.0,-514.0,-32.0,1976.0,3922.0
500,859180.0,224988.0,120183.0,-178201.0,-395585.0,-8672.0,418363.0,3343389.0,-4848.0,-12483.0,10482.0,-514.0,-32.0,1976.0,3922.0
501,859531.0,226289.0,121083.0,-177025.0,-394664.0,-7850.0,419095.0,3343379.0,-4848.0,-12483.0,10482.0,-514.0,-32.0,1976.0,3922.0
502,859636.0,227121.0,121099.0,-176699.0,-394637.0,-7844.0,419263.0,3343165.0,-4848.0,-12483.0,10482.0,-514.0,-32.0,1976.0,3922.0
503,860004.0,227898.0,121364.0,-176487.0,-394179.0,-7517.0,419718.0,3342857.0,-5042.0,-12479.0,10441.0,-447.0,-166.0,2514.0,3922.0
504,860404.0,228925.0,122033.0,-175729.0,-393429.0,-6873.0,420263.0,3342541.0,-5042.0,-12479.0,10441.0,-447.0,-166.0,2514.0,3922.0
505,860961.0,230226.0,123168.0,-174497.0,-392255.0,-5611.0,420938.0,3342521.0,-5042.0,-12479.0,10441.0,-447.0,-166.0,2514.0,3922.0
506,861214.0,230859.0,123210.0,-174435.0,-392005.0,-5182.0,420981.0,3341992.0,-5042.0,-12479.0,10441.0,-447.0,-166.0,2514.0,3922.0
507,861518.0,231827.0,123942.0,-173807.0,-391441.0,-4560.0,421307.0,3341547.0,-5042.0,-12479.0,10441.0,-447.0,-166.0,2514.0,3922.0
508,861780.0,232933.0,124751.0,-172833.0,-390422.0,-3591.0,422010.0,3341291.0,-5042.0,-12479.0,10441.0,-447.0,-166.0,2514.0,3922.0
509,861675.0,233722.0,124953.0,-172584.0,-390123.0,-3176.0,422214.0,3340802.0,-5042.0,-12479.0,10441.0,-447.0,-166.0,2514.0,3922.0
510,861736.0,234903.0,125537.0,-171952.0,-389480.0,-2709.0,422668.0,3340374.0,-5042.0,-12479.0,10441.0,-447.0,-166.0,2514.0,3922.0
511,862129.0,236218.0,126791.0,-171057.0,-388149.0,-1671.0,423603.0,3340233.0,-5042.0,-12479.0,10441.0,-447.0,-166.0,2514.0,3922.0
512,862264.0,237273.0,127408.0,-170523.0,-387328.0,-1002.0,424158.0,3339768.0,-5042.0,-12479.0,10441.0,-447.0,-166.0,2514.0,3922.0
513,862209.0,238218.0,127566.0,-170421.0,-386991.0,-676.0,424458.0,3339169.0,-5105.0,-12350.0,10330.0,-684.0,-389.0,3029.0,3922.0
514,862379.0,239579.0,128638.0,-169583.0,-385936.0,306.0,425268.0,3338870.0,-5105.0,-12350.0,10330.0,-684.0,-389.0,3029.0,3922.0
515,862418.0,240834.0,129654.0,-168425.0,-384918.0,1238.0,425979.0,3338417.0,-5105.0,-12350.0,10330.0,-684.0,-389.0,3029.0,3922.0
516,862308.0,241882.0,130035.0,-167719.0,-384334.0,1773.0,426371.0,3337776.0,-5105.0,-12350.0,10330.0,-684.0,-389.0,3029.0,3922.0
517,862099.0,242701.0,130230.0,-167312.0,-383994.0,2016.0,426718.0,3337125.0,-5105.0,-12350.0,10330.0,-684.0,-389.0,3029.0,3922.0
518,862055.0,243803.0,131041.0,-166521.0,-383134.0,2658.0,427544.0,3336738.0,-5105.0,-12350.0,10330.0,-684.0,-389.0,3029.0,3922.0
519,861666.0,244609.0,131458.0,-166161.0,-382704.0,2809.0,428172.0,3336164.0,-5105.0,-12350.0,10330.0,-684.0,-389.0,3029.0,3922.0
520,861287.0,245696.0,132457.0,-165277.0,-381788.0,3283.0,429013.0,3335558.0,-5105.0,-12350.0,10330.0,-684.0,-389.0,3029.0,3922.0
521,860803.0,246626.0,133199.0,-164508.0,-380921.0,3688.0,429961.0,3334947.0,-5105.0,-12350.0,10330.0,-684.0,-389.0,3029.0,3922.0
522,860369.0,247427.0,133590.0,-164011.0,-380473.0,3854.0,430743.0,3334212.0,-5105.0,-12350.0,10330.0,-684.0,-389.0,3029.0,3922.0
523,859947.0,248194.0,134039.0,-163544.0,-380121.0,3946.0,431317.0,3333334.0,-5083.0,-12338.0,10196.0,-628.0,-486.0,3428.0,3922.0
524,859741.0,249461.0,135390.0,-162196.0,-378930.0,4861.0,432369.0,3332715.0,-5083.0,-12338.0,10196.0,-628.0,-486.0,3428.0,3922.0
525,859393.0,250770.0,136196.0,-161217.0,-377967.0,5763.0,433216.0,3332006.0,-5083.0,-12338.0,10196.0,-628.0,-486.0,3428.0,3922.0
526,858820.0,251794.0,135883.0,-161238.0,-377969.0,5944.0,433364.0,3330958.0,-5083.0,-12338.0,10196.0,-628.0,-486.0,3428.0,3922.0
527,858544.0,253184.0,136679.0,-160272.0,-377079.0,6905.0,434153.0,3330285.0,-5083.0,-12338.0,10196.0,-628.0,-486.0,3428.0,3922.0
528,858289.0,254364.0,137325.0,-159592.0,-376299.0,7644.0,434816.0,3329601.0,-5083.0,-12338.0,10196.0,-628.0,-486.0,3428.0,3922.0
529,857826.0,255131.0,137451.0,-159352.0,-375956.0,7969.0,435242.0,3328765.0,-5083.0,-12338.0,10196.0,-628.0,-486.0,3428.0,3922.0
530,857333.0,255949.0,138159.0,-158756.0,-375261.0,8492.0,435901.0,3328069.0,-5083.0,-12338.0,10196.0,-628.0,-486.0,3428.0,3922.0
531,856959.0,256883.0,138963.0,-158088.0,-374399.0,9252.0,436614.0,3327370.0,-5083.0,-12338.0,10196.0,-628.0,-486.0,3428.0,3922.0
532,856494.0,257833.0,139926.0,-157222.0,-373279.0,10235.0,437383.0,3326664.0,-5083.0,-12338.0,10196.0,-628.0,-486.0,3428.0,3922.0
533,856038.0,259076.0,141371.0,-156221.0,-371714.0,11651.0,438466.0,3326043.0,-4974.0,-12555.0,10039.0,-76.0,-571.0,3701.0,3922.0
534,855799.0,260152.0,142263.0,-155363.0,-370471.0,12846.0,439280.0,3325325.0,-4974.0,-12555.0,10039.0,-76.0,-571.0,3701.0,3922.0
535,855737.0,261100.0,143015.0,-154461.0,-369412.0,13795.0,440039.0,3324721.0,-4974.0,-12555.0,10039.0,-76.0,-571.0,3701.0,3922.0
536,855389.0,261695.0,142824.0,-154345.0,-369238.0,14089.0,440293.0,3323986.0,-4974.0,-12555.0,10039.0,-76.0,-571.0,3701.0,3922.0
537,855319.0,262723.0,143118.0,-153843.0,-368559.0,14974.0,440787.0,3323309.0,-4974.0,-12555.0,10039.0,-76.0,-571.0,3701.0,3922.0
538,855313.0,264031.0,143881.0,-153062.0,-367572.0,16132.0,441339.0,3322704.0,-4974.0,-12555.0,10039.0,-76.0,-571.0,3701.0,3922.0
539,855017.0,264856.0,144034.0,-152780.0,-367179.0,16693.0,441502.0,3321931.0,-4974.0,-12555.0,10039.0,-76.0,-571.0,3701.0,3922.0
540,854934.0,266024.0,144710.0,-151962.0,-366274.0,17639.0,442109.0,3321413.0,-4974.0,-12555.0,10039.0,-76.0,-571.0,3701.0,3922.0
541,854731.0,266954.0,144814.0,-151722.0,-365852.0,18192.0,442448.0,3320719.0,-4974.0,-12555.0,10039.0,-76.0,-571.0,3701.0,3922.0
542,854463.0,267901.0,145073.0,-151486.0,-365324.0,18874.0,442769.0,3319909.0,-4974.0,-12555.0,10039.0,-76.0,-571.0,3701.0,3922.0
543,854299.0,268924.0,145601.0,-150880.0,-364537.0,19517.0,443298.0,3319197.0,-4839.0,-12648.0,10050.0,535.0,-531.0,4098.0,3922.0
544,854204.0,270164.0,146369.0,-149779.0,-363491.0,20404.0,443904.0,3318544.0,-4839.0,-12648.0,10050.0,535.0,-531.0,4098.0,3922.0
545,854332.0,271538.0,147444.0,-148497.0,-362002.0,22001.0,444789.0,3318021.0,-4839.0,-12648.0,10050.0,535.0,-531.0,4098.0,3922.0
546,854641.0,272477.0,147529.0,-148119.0,-361416.0,22917.0,445101.0,3317329.0,-4839.0,-12648.0,10050.0,535.0,-531.0,4098.0,3922.0
547,854643.0,273238.0,147437.0,-147964.0,-361144.0,23548.0,445240.0,3316527.0,-4839.0,-12648.0,10050.0,535.0,-531.0,4098.0,3922.0
548,854836.0,274276.0,147854.0,-147503.0,-360481.0,24315.0,445675.0,3315870.0,-4839.0,-12648.0,10050.0,535.0,-531.0,4098.0,3922.0
549,855206.0,275529.0,148584.0,-146629.0,-359473.0,25321.0,446194.0,3315183.0,-4839.0,-12648.0,10050.0,535.0,-531.0,4098.0,3922.0
550,855574.0,276688.0,149369.0,-145699.0,-358325.0,26449.0,446771.0,3314584.0,-4839.0,-12648.0,10050.0,535.0,-531.0,4098.0,3922.0
551,855661.0,277944.0,149295.0,-145448.0,-357902.0,27066.0,447015.0,3313962.0,-4839.0,-12648.0,10050.0,535.0,-531.0,4098.0,3922.0
552,855946.0,279576.0,149919.0,-144587.0,-356986.0,28015.0,447595.0,3313459.0,-4839.0,-12648.0,10050.0,535.0,-531.0,4098.0,3922.0
553,856217.0,280787.0,149893.0,-143787.0,-356090.0,28892.0,448097.0,3312860.0,-4837.0,-12475.0,10176.0,578.0,-656.0,4279.0,3922.0
554,856441.0,281639.0,149998.0,-143328.0,-355762.0,29271.0,448158.0,3312146.0,-4837.0,-12475.0,10176.0,578.0,-656.0,4279.0,3922.0
555,857251.0,283344.0,150563.0,-142402.0,-354718.0,30631.0,448778.0,3311829.0,-4837.0,-12475.0,10176.0,578.0,-656.0,4279.0,3922.0
556,857620.0,284631.0,150588.0,-142378.0,-354355.0,31673.0,448952.0,3311239.0,-4837.0,-12475.0,10176.0,578.0,-656.0,4279.0,3922.0
557,857689.0,285449.0,150456.0,-142576.0,-354434.0,31994.0,448959.0,3310511.0,-4837.0,-12475.0,10176.0,578.0,-656.0,4279.0,3922.0
558,857855.0,286128.0,150542.0,-142176.0,-353997.0,32566.0,449279.0,3309901.0,-4837.0,-12475.0,10176.0,578.0,-656.0,4279.0,3922.0
559,857909.0,287003.0,151141.0,-141565.0,-353424.0,33194.0,449789.0,3309500.0,-4837.0,-12475.0,10176.0,578.0,-656.0,4279.0,3922.0
560,857949.0,287996.0,151588.0,-141054.0,-352722.0,33741.0,450478.0,3309179.0,-4837.0,-12475.0,10176.0,578.0,-656.0,4279.0,3922.0
561,858082.0,289141.0,152610.0,-140081.0,-351750.0,34433.0,451362.0,3308898.0,-4837.0,-12475.0,10176.0,578.0,-656.0,4279.0,3922.0
562,858011.0,289908.0,152848.0,-139606.0,-351272.0,34758.0,451816.0,3308385.0,-4837.0,-12475.0,10176.0,578.0,-656.0,4279.0,3922.0
563,858059.0,291075.0,153654.0,-138525.0,-350319.0,35614.0,452489.0,3308056.0,-4892.0,-12228.0,10245.0,-121.0,-769.0,4230.0,3922.0
564,857835.0,292044.0,153973.0,-137943.0,-349752.0,36280.0,452929.0,3307521.0,-4892.0,-12228.0,10245.0,-121.0,-769.0,4230.0,3922.0
565,857968.0,293788.0,154883.0,-137046.0,-348673.0,37511.0,453714.0,3307162.0,-4892.0,-12228.0,10245.0,-121.0,-769.0,4230.0,3922.0
566,857897.0,294974.0,154990.0,-136729.0,-348439.0,37886.0,453961.0,3306601.0,-4892.0,-12228.0,10245.0,-121.0,-769.0,4230.0,3922.0
567,858278.0,296101.0,155428.0,-136013.0,-347706.0,38805.0,454539.0,3306329.0,-4892.0,-12228.0,10245.0,-121.0,-769.0,4230.0,3922.0
568,858458.0,296643.0,155468.0,-135996.0,-347556.0,39259.0,454672.0,3305736.0,-4892.0,-12228.0,10245.0,-121.0,-769.0,4230.0,3922.0
569,858687.0,297809.0,156049.0,-135319.0,-347149.0,39131.0,455172.0,3305291.0,-4892.0,-12228.0,10245.0,-121.0,-769.0,4230.0,3922.0
570,858948.0,299514.0,157100.0,-134001.0,-346282.0,39446.0,455974.0,3304990.0,-4892.0,-12228.0,10245.0,-121.0,-769.0,4230.0,3922.0
571,858770.0,300700.0,157399.0,-133614.0,-345832.0,39879.0,456346.0,3304451.0,-4892.0,-12228.0,10245.0,-121.0,-769.0,4230.0,3922.0
572,859080.0,302193.0,157938.0,-132727.0,-345101.0,40688.0,456768.0,3304038.0,-4892.0,-12228.0,10245.0,-121.0,-769.0,4230.0,3922.0
573,859338.0,303177.0,158014.0,-132143.0,-344805.0,40996.0,457017.0,3303503.0,-4890.0,-12145.0,10262.0,-502.0,-734.0,4145.0,3922.0
574,860062.0,304599.0,158938.0,-131527.0,-343816.0,41934.0,457762.0,3303233.0,-4890.0,-12145.0,10262.0,-502.0,-734.0,4145.0,3922.0
575,860795.0,306257.0,159731.0,-130872.0,-343022.0,42723.0,458273.0,3302803.0,-4890.0,-12145.0,10262.0,-502.0,-734.0,4145.0,3922.0
576,861083.0,307456.0,159468.0,-130979.0,-343142.0,42830.0,458231.0,3302219.0,-4890.0,-12145.0,10262.0,-502.0,-734.0,4145.0,3922.0
577,861379.0,308550.0,159594.0,-131004.0,-342773.0,43415.0,458567.0,3301981.0,-4890.0,-12145.0,10262.0,-502.0,-734.0,4145.0,3922.0
578,861595.0,309731.0,159863.0,-130770.0,-342265.0,44029.0,458931.0,3301620.0,-4890.0,-12145.0,10262.0,-502.0,-734.0,4145.0,3922.0
579,861806.0,310944.0,160629.0,-130330.0,-341561.0,44871.0,459469.0,3301266.0,-4890.0,-12145.0,10262.0,-502.0,-734.0,4145.0,3922.0
580,861952.0,312179.0,162046.0,-129093.0,-340357.0,45992.0,460291.0,3300949.0,-4890.0,-12145.0,10262.0,-502.0,-734.0,4145.0,3922.0
581,861990.0,312982.0,162930.0,-128168.0,-339503.0,46736.0,460860.0,3300540.0,-4890.0,-12145.0,10262.0,-502.0,-734.0,4145.0,3922.0
582,862076.0,313517.0,163113.0,-128033.0,-339214.0,46945.0,461026.0,3299946.0,-4890.0,-12145.0,10262.0,-502.0,-734.0,4145.0,3922.0
583,862584.0,314671.0,163936.0,-127336.0,-338207.0,48069.0,461518.0,3299514.0,-4911.0,-12235.0,10300.0,-333.0,-595.0,4167.0,3922.0
584,862896.0,315979.0,164511.0,-126914.0,-337447.0,49205.0,461929.0,3299131.0,-4911.0,-12235.0,10300.0,-333.0,-595.0,4167.0,3922.0
585,863246.0,317158.0,164912.0,-126455.0,-336731.0,50237.0,462273.0,3298720.0,-4911.0,-12235.0,10300.0,-333.0,-595.0,4167.0,3922.0
586,863628.0,317854.0,164573.0,-126666.0,-336570.0,50568.0,462263.0,3298168.0,-4911.0,-12235.0,10300.0,-333.0,-595.0,4167.0,3922.0
587,864333.0,318941.0,165262.0,-125874.0,-335597.0,51456.0,462894.0,3297941.0,-4911.0,-12235.0,10300.0,-333.0,-595.0,4167.0,3922.0
588,864592.0,319754.0,165789.0,-125191.0,-334867.0,52083.0,463351.0,3297568.0,-4911.0,-12235.0,10300.0,-333.0,-595.0,4167.0,3922.0
589,864325.0,320278.0,166219.0,-124436.0,-334227.0,52554.0,463757.0,3297056.0,-4911.0,-12235.0,10300.0,-333.0,-595.0,4167.0,3922.0
590,864397.0,321090.0,167223.0,-123217.0,-333021.0,53669.0,464511.0,3296811.0,-4911.0,-12235.0,10300.0,-333.0,-595.0,4167.0,3922.0
591,864429.0,321730.0,167885.0,-122474.0,-332034.0,54524.0,465107.0,3296489.0,-4911.0,-12235.0,10300.0,-333.0,-595.0,4167.0,3922.0
592,864623.0,322394.0,167791.0,-122365.0,-331656.0,55152.0,465168.0,3295916.0,-4911.0,-12235.0,10300.0,-333.0,-595.0,4167.0,3922.0
593,865210.0,323698.0,168113.0,-121788.0,-331035.0,56071.0,465351.0,3295463.0,-5091.0,-12267.0,10363.0,-168.0,-421.0,4226.0,3922.0
594,865808.0,325058.0,169077.0,-120710.0,-329824.0,57495.0,465962.0,3295161.0,-5091.0,-12267.0,10363.0,-168.0,-421.0,4226.0,3922.0
595,866346.0,326138.0,169652.0,-119939.0,-329019.0,58521.0,466405.0,3294954.0,-5091.0,-12267.0,10363.0,-168.0,-421.0,4226.0,3922.0
596,866738.0,326947.0,169292.0,-120132.0,-329024.0,58870.0,466305.0,3294685.0,-5091.0,-12267.0,10363.0,-168.0,-421.0,4226.0,3922.0
597,867586.0,328415.0,169783.0,-119457.0,-328483.0,59709.0,466648.0,3294645.0,-5091.0,-12267.0,10363.0,-168.0,-421.0,4226.0,3922.0
598,867979.0,329149.0,169906.0,-119343.0,-328201.0,60244.0,466744.0,3294330.0,-5091.0,-12267.0,10363.0,-168.0,-421.0,4226.0,3922.0
599,868356.0,330002.0,170036.0,-118869.0,-327777.0,61096.0,466891.0,3294126.0,-5091.0,-12267.0,10363.0,-168.0,-421.0,4226.0,3922.0
600,869123.0,331288.0,170726.0,-118016.0,-326891.0,62138.0,467261.0,3293991.0,-5091.0,-12267.0,10363.0,-168.0,-421.0,4226.0,3922.0
601,869473.0,332194.0,171067.0,-117669.0,-326340.0,62736.0,467603.0,3293801.0,-5091.0,-12267.0,10363.0,-168.0,-421.0,4226.0,3922.0
602,869393.0,332483.0,170801.0,-117938.0,-326426.0,62574.0,467768.0,3293438.0,-5091.0,-12267.0,10363.0,-168.0,-421.0,4226.0,3922.0
603,869929.0,333154.0,171068.0,-117596.0,-326059.0,62844.0,468108.0,3293140.0,-5318.0,-12135.0,10395.0,-311.0,-318.0,4346.0,3922.0
604,870587.0,334058.0,171805.0,-116659.0,-325099.0,63803.0,468776.0,3293045.0,-5318.0,-12135.0,10395.0,-311.0,-318.0,4346.0,3922.0
605,871031.0,335001.0,172451.0,-115873.0,-324244.0,64678.0,469312.0,3292819.0,-5318.0,-12135.0,10395.0,-311.0,-318.0,4346.0,3922.0
606,871181.0,335583.0,172233.0,-116241.0,-324168.0,65033.0,469225.0,3292382.0,-5318.0,-12135.0,10395.0,-311.0,-318.0,4346.0,3922.0
607,871198.0,336423.0,172643.0,-115796.0,-323672.0,65433.0,469583.0,3292150.0,-5318.0,-12135.0,10395.0,-311.0,-318.0,4346.0,3922.0
608,871427.0,337366.0,173451.0,-114709.0,-322831.0,66161.0,470219.0,3291878.0,-5318.0,-12135.0,10395.0,-311.0,-318.0,4346.0,3922.0
609,871749.0,338389.0,173846.0,-114041.0,-322234.0,67104.0,470573.0,3291551.0,-5318.0,-12135.0,10395.0,-311.0,-318.0,4346.0,3922.0
610,872130.0,339432.0,174061.0,-113704.0,-321832.0,67694.0,470834.0,3291205.0,-5318.0,-12135.0,10395.0,-311.0,-318.0,4346.0,3922.0
611,872436.0,340365.0,174046.0,-113546.0,-321689.0,68131.0,470979.0,3290850.0,-5318.0,-12135.0,10395.0,-311.0,-318.0,4346.0,3922.0
612,872847.0,341708.0,174243.0,-113349.0,-321324.0,68891.0,471202.0,3290530.0,-5318.0,-12135.0,10395.0,-311.0,-318.0,4346.0,3922.0
613,873573.0,343144.0,175118.0,-112499.0,-320325.0,69982.0,471752.0,3290260.0,-5546.0,-11981.0,10433.0,-404.0,-35.0,4484.0,3922.0
614,874020.0,344410.0,175514.0,-111995.0,-319794.0,70598.0,472101.0,3290022.0,-5546.0,-11981.0,10433.0,-404.0,-35.0,4484.0,3922.0
615,874375.0,345836.0,176096.0,-111383.0,-319003.0,71482.0,472545.0,3289734.0,-5546.0,-11981.0,10433.0,-404.0,-35.0,4484.0,3922.0
616,874599.0,346876.0,176546.0,-110846.0,-318386.0,72297.0,472781.0,3289333.0,-5546.0,-11981.0,10433.0,-404.0,-35.0,4484.0,3922.0
617,874833.0,347743.0,176980.0,-110296.0,-317807.0,72838.0,473097.0,3288993.0,-5546.0,-11981.0,10433.0,-404.0,-35.0,4484.0,3922.0
618,875157.0,348143.0,176667.0,-110366.0,-317867.0,72853.0,473058.0,3288517.0,-5546.0,-11981.0,10433.0,-404.0,-35.0,4484.0,3922.0
619,875640.0,348754.0,176889.0,-110007.0,-317572.0,73073.0,473334.0,3288223.0,-5546.0,-11981.0,10433.0,-404.0,-35.0,4484.0,3922.0
620,876014.0,349444.0,177448.0,-109587.0,-316944.0,73575.0,473771.0,3287874.0,-5546.0,-11981.0,10433.0,-404.0,-35.0,4484.0,3922.0
621,876456.0,350368.0,178106.0,-108811.0,-316136.0,74344.0,474271.0,3287502.0,-5546.0,-11981.0,10433.0,-404.0,-35.0,4484.0,3922.0
622,876781.0,351416.0,178996.0,-107814.0,-315032.0,75398.0,474887.0,3287378.0,-5546.0,-11981.0,10433.0,-404.0,-35.0,4484.0,3922.0
623,877163.0,352295.0,179628.0,-107180.0,-314218.0,76316.0,475294.0,3287073.0,-5736.0,-11915.0,10441.0,-50.0,405.0,4682.0,3922.0
624,877611.0,353352.0,180138.0,-106757.0,-313549.0,76899.0,475650.0,3286588.0,-5736.0,-11915.0,10441.0,-50.0,405.0,4682.0,3922.0
625,877693.0,355051.0,180505.0,-106355.0,-313077.0,77207.0,475986.0,3286232.0,-5736.0,-11915.0,10441.0,-50.0,405.0,4682.0,3922.0
626,877745.0,355799.0,180441.0,-106079.0,-312839.0,77475.0,476159.0,3285906.0,-5736.0,-11915.0,10441.0,-50.0,405.0,4682.0,3922.0
627,877949.0,356405.0,180681.0,-105711.0,-312269.0,78286.0,476557.0,3285624.0,-5736.0,-11915.0,10441.0,-50.0,405.0,4682.0,3922.0
628,877944.0,357247.0,180814.0,-105382.0,-311828.0,79031.0,476888.0,3285216.0,-5736.0,-11915.0,10441.0,-50.0,405.0,4682.0,3922.0
629,878041.0,358409.0,181343.0,-104541.0,-311227.0,79358.0,477277.0,3284860.0,-5736.0,-11915.0,10441.0,-50.0,405.0,4682.0,3922.0
630,878377.0,359886.0,181825.0,-103922.0,-310662.0,79813.0,477533.0,3284316.0,-5736.0,-11915.0,10441.0,-50.0,405.0,4682.0,3922.0
631,878849.0,361867.0,182179.0,-103624.0,-310147.0,80436.0,477714.0,3283793.0,-5736.0,-11915.0,10441.0,-50.0,405.0,4682.0,3922.0
632,879227.0,362976.0,182457.0,-103151.0,-309579.0,80994.0,477918.0,3283314.0,-5736.0,-11915.0,10441.0,-50.0,405.0,4682.0,3922.0
633,879539.0,363723.0,182464.0,-102904.0,-309304.0,81321.0,478031.0,3282810.0,-5927.0,-11812.0,10501.0,116.0,826.0,4811.0,3922.0
634,880103.0,364914.0,183251.0,-101858.0,-308432.0,81838.0,478653.0,3282570.0,-5927.0,-11812.0,10501.0,116.0,826.0,4811.0,3922.0
635,880655.0,366356.0,184198.0,-100519.0,-307989.0,80970.0,479286.0,3282293.0,-5927.0,-11812.0,10501.0,116.0,826.0,4811.0,3922.0
636,880944.0,367326.0,183993.0,-99159.0,-307672.0,80785.0,479136.0,3281808.0,-5927.0,-11812.0,10501.0,116.0,826.0,4811.0,3922.0
637,881121.0,368100.0,183675.0,-99051.0,-307427.0,81520.0,479039.0,3281307.0,-5927.0,-11812.0,10501.0,116.0,826.0,4811.0,3922.0
638,881586.0,369381.0,184215.0,-98819.0,-306974.0,82814.0,479438.0,3280999.0,-5927.0,-11812.0,10501.0,116.0,826.0,4811.0,3922.0
639,881813.0,370136.0,184159.0,-98532.0,-306657.0,83396.0,479478.0,3280432.0,-5927.0,-11812.0,10501.0,116.0,826.0,4811.0,3922.0
640,882157.0,371119.0,184636.0,-98056.0,-306154.0,83978.0,479798.0,3280153.0,-5927.0,-11812.0,10501.0,116.0,826.0,4811.0,3922.0
641,882616.0,372464.0,185532.0,-97053.0,-305247.0,84664.0,480320.0,3280164.0,-5927.0,-11812.0,10501.0,116.0,826.0,4811.0,3922.0
642,882376.0,373326.0,185881.0,-96668.0,-304968.0,84599.0,480714.0,3280001.0,-5927.0,-11812.0,10501.0,116.0,826.0,4811.0,3922.0
643,882602.0,374411.0,186559.0,-95762.0,-304278.0,85169.0,481286.0,3280020.0,-6162.0,-11608.0,10561.0,-5.0,1186.0,4873.0,3922.0
644,882812.0,374979.0,186809.0,-95356.0,-303853.0,85786.0,481581.0,3279661.0,-6162.0,-11608.0,10561.0,-5.0,1186.0,4873.0,3922.0
645,883106.0,375959.0,187815.0,-94713.0,-302793.0,87104.0,482345.0,3279476.0,-6162.0,-11608.0,10561.0,-5.0,1186.0,4873.0,3922.0
646,883171.0,376498.0,187739.0,-94350.0,-302506.0,87529.0,482486.0,3278889.0,-6162.0,-11608.0,10561.0,-5.0,1186.0,4873.0,3922.0
647,883336.0,377360.0,188486.0,-93262.0,-301731.0,88251.0,483180.0,3278569.0,-6162.0,-11608.0,10561.0,-5.0,1186.0,4873.0,3922.0
648,883279.0,378059.0,188538.0,-92845.0,-301504.0,88451.0,483299.0,3277987.0,-6162.0,-11608.0,10561.0,-5.0,1186.0,4873.0,3922.0
649,883426.0,378937.0,189053.0,-92343.0,-301068.0,89277.0,483733.0,3277631.0,-6162.0,-11608.0,10561.0,-5.0,1186.0,4873.0,3922.0
650,883356.0,379529.0,189893.0,-91889.0,-300652.0,89942.0,484468.0,3277608.0,-6162.0,-11608.0,10561.0,-5.0,1186.0,4873.0,3922.0
651,883012.0,380434.0,190576.0,-90944.0,-299886.0,90382.0,485033.0,3277438.0,-6162.0,-11608.0,10561.0,-5.0,1186.0,4873.0,3922.0
652,882936.0,381636.0,191609.0,-90037.0,-298830.0,91287.0,485841.0,3277224.0,-6162.0,-11608.0,10561.0,-5.0,1186.0,4873.0,3922.0
653,882857.0,382558.0,192220.0,-89212.0,-297870.0,91963.0,486444.0,3276755.0,-6431.0,-11420.0,10598.0,-103.0,1594.0,4865.0,3922.0
654,882876.0,383371.0,192748.0,-88393.0,-296993.0,92508.0,486936.0,3276295.0,-6431.0,-11420.0,10598.0,-103.0,1594.0,4865.0,3922.0
655,882923.0,384318.0,193389.0,-87554.0,-296089.0,93271.0,487479.0,3275846.0,-6431.0,-11420.0,10598.0,-103.0,1594.0,4865.0,3922.0
656,882699.0,384768.0,193338.0,-87173.0,-295792.0,93376.0,487742.0,3275244.0,-6431.0,-11420.0,10598.0,-103.0,1594.0,4865.0,3922.0
657,882983.0,385738.0,194136.0,-86086.0,-294828.0,94073.0,488521.0,3274778.0,-6431.0,-11420.0,10598.0,-103.0,1594.0,4865.0,3922.0
658,882943.0,386415.0,194598.0,-85357.0,-294116.0,94614.0,489008.0,3274439.0,-6431.0,-11420.0,10598.0,-103.0,1594.0,4865.0,3922.0
659,882882.0,387110.0,195016.0,-84860.0,-293481.0,95054.0,489431.0,3274069.0,-6431.0,-11420.0,10598.0,-103.0,1594.0,4865.0,3922.0
660,882662.0,388258.0,195128.0,-84753.0,-293157.0,95168.0,489544.0,3273491.0,-6431.0,-11420.0,10598.0,-103.0,1594.0,4865.0,3922.0
661,882546.0,389139.0,195666.0,-84192.0,-292509.0,95456.0,489956.0,3273052.0,-6431.0,-11420.0,10598.0,-103.0,1594.0,4865.0,3922.0
662,882434.0,389716.0,196439.0,-83248.0,-291657.0,96023.0,490539.0,3272669.0,-6431.0,-11420.0,10598.0,-103.0,1594.0,4865.0,3922.0
663,882381.0,390212.0,197431.0,-82102.0,-290414.0,97135.0,491408.0,3272471.0,-6722.0,-11242.0,10669.0,-240.0,1906.0,4775.0,3922.0
664,882054.0,390731.0,197879.0,-81556.0,-289701.0,97692.0,491819.0,3272022.0,-6722.0,-11242.0,10669.0,-240.0,1906.0,4775.0,3922.0
665,882231.0,391859.0,198842.0,-80686.0,-288614.0,98646.0,492507.0,3271723.0,-6722.0,-11242.0,10669.0,-240.0,1906.0,4775.0,3922.0
666,882124.0,392541.0,199104.0,-80015.0,-287981.0,99304.0,492758.0,3271234.0,-6722.0,-11242.0,10669.0,-240.0,1906.0,4775.0,3922.0
667,881770.0,393444.0,199076.0,-79829.0,-287797.0,99909.0,492906.0,3270674.0,-6722.0,-11242.0,10669.0,-240.0,1906.0,4775.0,3922.0
668,881812.0,394624.0,199928.0,-78943.0,-286877.0,100936.0,493536.0,3270345.0,-6722.0,-11242.0,10669.0,-240.0,1906.0,4775.0,3922.0
669,881835.0,395427.0,200478.0,-78181.0,-286147.0,101563.0,494026.0,3269902.0,-6722.0,-11242.0,10669.0,-240.0,1906.0,4775.0,3922.0
670,881603.0,395964.0,200483.0,-77788.0,-286054.0,101404.0,494184.0,3269292.0,-6722.0,-11242.0,10669.0,-240.0,1906.0,4775.0,3922.0
671,881503.0,396984.0,201504.0,-76654.0,-285134.0,101973.0,494971.0,3268976.0,-6722.0,-11242.0,10669.0,-240.0,1906.0,4775.0,3922.0
672,881339.0,397859.0,202187.0,-76151.0,-284363.0,102587.0,495789.0,3268667.0,-6722.0,-11242.0,10669.0,-240.0,1906.0,4775.0,3922.0
673,880896.0,398584.0,202796.0,-75536.0,-283674.0,102944.0,496543.0,3268290.0,-6951.0,-11007.0,10620.0,-601.0,2218.0,4582.0,3922.0
674,880409.0,399074.0,203068.0,-75071.0,-283286.0,103236.0,496999.0,3267738.0,-6951.0,-11007.0,10620.0,-601.0,2218.0,4582.0,3922.0
675,880113.0,399970.0,204364.0,-73547.0,-281922.0,104331.0,498000.0,3267345.0,-6951.0,-11007.0,10620.0,-601.0,2218.0,4582.0,3922.0
676,879702.0,400686.0,205039.0,-72510.0,-281092.0,105064.0,498579.0,3266759.0,-6951.0,-11007.0,10620.0,-601.0,2218.0,4582.0,3922.0
677,879398.0,401202.0,205041.0,-72130.0,-280791.0,105503.0,498781.0,3266091.0,-6951.0,-11007.0,10620.0,-601.0,2218.0,4582.0,3922.0
678,879169.0,401878.0,205518.0,-71449.0,-280211.0,105993.0,499196.0,3265422.0,-6951.0,-11007.0,10620.0,-601.0,2218.0,4582.0,3922.0
679,878941.0,402578.0,206338.0,-70426.0,-279337.0,106564.0,499969.0,3265000.0,-6951.0,-11007.0,10620.0,-601.0,2218.0,4582.0,3922.0
680,878778.0,403251.0,207393.0,-69331.0,-278276.0,107233.0,500871.0,3264738.0,-6951.0,-11007.0,10620.0,-601.0,2218.0,4582.0,3922.0
681,878429.0,403904.0,208274.0,-68392.0,-277258.0,107941.0,501639.0,3264186.0,-6951.0,-11007.0,10620.0,-601.0,2218.0,4582.0,3922.0
682,878132.0,404586.0,209062.0,-67522.0,-276453.0,108493.0,502313.0,3263518.0,-6951.0,-11007.0,10620.0,-601.0,2218.0,4582.0,3922.0
683,877774.0,405182.0,209783.0,-66524.0,-275674.0,108928.0,502991.0,3263011.0,-7218.0,-10798.0,10463.0,-1035.0,2298.0,4312.0,3922.0
684,877482.0,405818.0,210323.0,-65646.0,-274990.0,109407.0,503552.0,3262557.0,-7218.0,-10798.0,10463.0,-1035.0,2298.0,4312.0,3922.0
685,877203.0,406467.0,210733.0,-64976.0,-274343.0,109958.0,504098.0,3262195.0,-7218.0,-10798.0,10463.0,-1035.0,2298.0,4312.0,3922.0
686,876701.0,406713.0,210483.0,-65034.0,-274256.0,110143.0,504304.0,3261603.0,-7218.0,-10798.0,10463.0,-1035.0,2298.0,4312.0,3922.0
687,876321.0,407011.0,210768.0,-64650.0,-273709.0,111001.0,504826.0,3261101.0,-7218.0,-10798.0,10463.0,-1035.0,2298.0,4312.0,3922.0
688,875538.0,407260.0,210921.0,-64677.0,-273193.0,112692.0,505329.0,3260520.0,-7218.0,-10798.0,10463.0,-1035.0,2298.0,4312.0,3922.0
689,874724.0,408491.0,211544.0,-64078.0,-272519.0,113489.0,505844.0,3260034.0,-7218.0,-10798.0,10463.0,-1035.0,2298.0,4312.0,3922.0
690,874414.0,409713.0,212634.0,-62809.0,-271401.0,114294.0,506606.0,3259696.0,-7218.0,-10798.0,10463.0,-1035.0,2298.0,4312.0,3922.0
691,874114.0,410426.0,213394.0,-61816.0,-270501.0,114924.0,507288.0,3259271.0,-7218.0,-10798.0,10463.0,-1035.0,2298.0,4312.0,3922.0
692,873724.0,411041.0,213784.0,-61092.0,-269926.0,115331.0,507814.0,3258777.0,-7218.0,-10798.0,10463.0,-1035.0,2298.0,4312.0,3922.0
693,873388.0,411499.0,213694.0,-60723.0,-269577.0,115691.0,508038.0,3258103.0,-7404.0,-10663.0,10342.0,-1171.0,2546.0,3962.0,3922.0
694,873370.0,412075.0,214125.0,-60311.0,-268821.0,116443.0,508510.0,3257613.0,-7404.0,-10663.0,10342.0,-1171.0,2546.0,3962.0,3922.0
695,873584.0,412954.0,215048.0,-59050.0,-267538.0,117711.0,509224.0,3257374.0,-7404.0,-10663.0,10342.0,-1171.0,2546.0,3962.0,3922.0
696,873514.0,413362.0,214786.0,-58782.0,-267416.0,117903.0,509362.0,3256910.0,-7404.0,-10663.0,10342.0,-1171.0,2546.0,3962.0,3922.0
697,873758.0,414016.0,215635.0,-58041.0,-266536.0,118573.0,510196.0,3256832.0,-7404.0,-10663.0,10342.0,-1171.0,2546.0,3962.0,3922.0
698,873643.0,414388.0,216319.0,-57614.0,-265681.0,119110.0,510907.0,3256528.0,-7404.0,-10663.0,10342.0,-1171.0,2546.0,3962.0,3922.0
699,873302.0,414579.0,216968.0,-57141.0,-264915.0,119576.0,511539.0,3256241.0,-7404.0,-10663.0,10342.0,-1171.0,2546.0,3962.0,3922.0
700,872963.0,414888.0,217891.0,-56337.0,-263986.0,120176.0,512159.0,3255826.0,-7404.0,-10663.0,10342.0,-1171.0,2546.0,3962.0,3922.0
701,872525.0,415199.0,218449.0,-55856.0,-263352.0,120430.0,512586.0,3255191.0,-7404.0,-10663.0,10342.0,-1171.0,2546.0,3962.0,3922.0
702,872391.0,415724.0,219279.0,-54934.0,-262389.0,121054.0,513249.0,3254748.0,-7404.0,-10663.0,10342.0,-1171.0,2546.0,3962.0,3922.0
703,872244.0,416151.0,219370.0,-54519.0,-261999.0,121329.0,513585.0,3254134.0,-7373.0,-10487.0,10204.0,-1188.0,2840.0,3839.0,3922.0
704,872433.0,417056.0,220314.0,-53401.0,-260989.0,122156.0,514297.0,3253768.0,-7373.0,-10487.0,10204.0,-1188.0,2840.0,3839.0,3922.0
705,872599.0,417879.0,221204.0,-52223.0,-259920.0,122886.0,514929.0,3253336.0,-7373.0,-10487.0,10204.0,-1188.0,2840.0,3839.0,3922.0
706,872573.0,418584.0,221585.0,-51719.0,-259324.0,123337.0,515338.0,3252669.0,-7373.0,-10487.0,10204.0,-1188.0,2840.0,3839.0,3922.0
707,872557.0,418933.0,221856.0,-51091.0,-258619.0,123924.0,515933.0,3252152.0,-7373.0,-10487.0,10204.0,-1188.0,2840.0,3839.0,3922.0
708,872329.0,419399.0,222154.0,-50679.0,-258084.0,124389.0,516257.0,3251466.0,-7373.0,-10487.0,10204.0,-1188.0,2840.0,3839.0,3922.0
709,872103.0,420402.0,223490.0,-49287.0,-256631.0,125493.0,517142.0,3250936.0,-7373.0,-10487.0,10204.0,-1188.0,2840.0,3839.0,3922.0
710,871678.0,421031.0,224347.0,-48332.0,-255511.0,126054.0,517964.0,3250428.0,-7373.0,-10487.0,10204.0,-1188.0,2840.0,3839.0,3922.0
711,871320.0,421676.0,224896.0,-47586.0,-254666.0,126389.0,518688.0,3249932.0,-7373.0,-10487.0,10204.0,-1188.0,2840.0,3839.0,3922.0
712,871187.0,422273.0,225265.0,-46999.0,-253942.0,126593.0,519328.0,3249405.0,-7373.0,-10487.0,10204.0,-1188.0,2840.0,3839.0,3922.0
713,871324.0,422969.0,225435.0,-46609.0,-253337.0,126879.0,519783.0,3248929.0,-7401.0,-10377.0,10127.0,-1123.0,2973.0,3586.0,3922.0
714,871429.0,423591.0,225281.0,-46514.0,-253027.0,127204.0,519920.0,3248316.0,-7401.0,-10377.0,10127.0,-1123.0,2973.0,3586.0,3922.0
715,871838.0,424646.0,226100.0,-45468.0,-251952.0,128358.0,520544.0,3247998.0,-7401.0,-10377.0,10127.0,-1123.0,2973.0,3586.0,3922.0
716,872112.0,425499.0,226388.0,-44882.0,-251353.0,129016.0,520794.0,3247490.0,-7401.0,-10377.0,10127.0,-1123.0,2973.0,3586.0,3922.0
717,872268.0,426435.0,226877.0,-44050.0,-250606.0,129707.0,520823.0,3246721.0,-7401.0,-10377.0,10127.0,-1123.0,2973.0,3586.0,3922.0
718,872234.0,427203.0,226949.0,-43548.0,-250254.0,130086.0,521137.0,3246339.0,-7401.0,-10377.0,10127.0,-1123.0,2973.0,3586.0,3922.0
719,872104.0,427470.0,226725.0,-43402.0,-250191.0,130108.0,521579.0,3246041.0,-7401.0,-10377.0,10127.0,-1123.0,2973.0,3586.0,3922.0
720,872051.0,428112.0,226938.0,-42824.0,-249739.0,130424.0,521966.0,3245563.0,-7401.0,-10377.0,10127.0,-1123.0,2973.0,3586.0,3922.0
721,871944.0,428899.0,227397.0,-42021.0,-249070.0,130869.0,522557.0,3245129.0,-7401.0,-10377.0,10127.0,-1123.0,2973.0,3586.0,3922.0
722,871874.0,429377.0,227708.0,-41314.0,-248477.0,131210.0,523126.0,3244751.0,-7401.0,-10377.0,10127.0,-1123.0,2973.0,3586.0,3922.0
723,871816.0,429983.0,228054.0,-40559.0,-247854.0,131593.0,523742.0,3244421.0,-7490.0,-10131.0,10051.0,-1031.0,3008.0,3152.0,3922.0
724,871800.0,430756.0,228677.0,-39678.0,-247085.0,132220.0,524355.0,3244029.0,-7490.0,-10131.0,10051.0,-1031.0,3008.0,3152.0,3922.0
725,871933.0,431761.0,229648.0,-38561.0,-246069.0,133146.0,525089.0,3243709.0,-7490.0,-10131.0,10051.0,-1031.0,3008.0,3152.0,3922.0
726,871759.0,432306.0,229769.0,-38408.0,-246040.0,133140.0,525274.0,3243083.0,-7490.0,-10131.0,10051.0,-1031.0,3008.0,3152.0,3922.0
727,871618.0,432896.0,230276.0,-37916.0,-245632.0,133413.0,525759.0,3242589.0,-7490.0,-10131.0,10051.0,-1031.0,3008.0,3152.0,3922.0
728,871353.0,433516.0,230788.0,-37176.0,-244987.0,133821.0,526238.0,3242025.0,-7490.0,-10131.0,10051.0,-1031.0,3008.0,3152.0,3922.0
729,870898.0,434141.0,231459.0,-36265.0,-244184.0,134244.0,526856.0,3241454.0,-7490.0,-10131.0,10051.0,-1031.0,3008.0,3152.0,3922.0
730,870384.0,434617.0,232077.0,-35466.0,-243507.0,134413.0,527469.0,3240941.0,-7490.0,-10131.0,10051.0,-1031.0,3008.0,3152.0,3922.0
731,870149.0,435482.0,233373.0,-34287.0,-242487.0,134846.0,528426.0,3240556.0,-7490.0,-10131.0,10051.0,-1031.0,3008.0,3152.0,3922.0
732,869578.0,435924.0,233921.0,-33783.0,-242052.0,134830.0,529007.0,3239932.0,-7490.0,-10131.0,10051.0,-1031.0,3008.0,3152.0,3922.0
733,869244.0,436665.0,235050.0,-32688.0,-241002.0,135421.0,529933.0,3239478.0,-7578.0,-9935.0,10047.0,-1104.0,2893.0,2632.0,3922.0
734,868874.0,437377.0,235933.0,-31701.0,-240032.0,136076.0,530610.0,3238917.0,-7578.0,-9935.0,10047.0,-1104.0,2893.0,2632.0,3922.0
735,868474.0,438144.0,236904.0,-30805.0,-238958.0,136911.0,531303.0,3238280.0,-7578.0,-9935.0,10047.0,-1104.0,2893.0,2632.0,3922.0
736,867958.0,438568.0,236993.0,-30552.0,-238664.0,137072.0,531586.0,3237467.0,-7578.0,-9935.0,10047.0,-1104.0,2893.0,2632.0,3922.0
737,867894.0,439401.0,237773.0,-29437.0,-237687.0,137783.0,532305.0,3236873.0,-7578.0,-9935.0,10047.0,-1104.0,2893.0,2632.0,3922.0
738,867501.0,439869.0,237934.0,-28892.0,-237226.0,138016.0,532653.0,3236004.0,-7578.0,-9935.0,10047.0,-1104.0,2893.0,2632.0,3922.0
739,867151.0,440623.0,238491.0,-28125.0,-236511.0,138203.0,533243.0,3235394.0,-7578.0,-9935.0,10047.0,-1104.0,2893.0,2632.0,3922.0
740,866963.0,441591.0,239530.0,-26901.0,-235441.0,138753.0,534153.0,3234931.0,-7578.0,-9935.0,10047.0,-1104.0,2893.0,2632.0,3922.0
741,866538.0,442313.0,240154.0,-26155.0,-234687.0,139076.0,534894.0,3234274.0,-7578.0,-9935.0,10047.0,-1104.0,2893.0,2632.0,3922.0
742,865917.0,442849.0,240186.0,-25985.0,-234447.0,139098.0,535214.0,3233434.0,-7578.0,-9935.0,10047.0,-1104.0,2893.0,2632.0,3922.0
743,865581.0,443686.0,241260.0,-24821.0,-233386.0,139701.0,536180.0,3232906.0,-7686.0,-9890.0,10139.0,-1104.0,2551.0,2075.0,3922.0
744,865212.0,444347.0,242159.0,-23811.0,-232439.0,140132.0,537054.0,3232294.0,-7686.0,-9890.0,10139.0,-1104.0,2551.0,2075.0,3922.0
745,864941.0,444893.0,242758.0,-23282.0,-231716.0,140433.0,537887.0,3231812.0,-7686.0,-9890.0,10139.0,-1104.0,2551.0,2075.0,3922.0
746,864599.0,445244.0,243102.0,-23119.0,-231186.0,140679.0,538437.0,3231285.0,-7686.0,-9890.0,10139.0,-1104.0,2551.0,2075.0,3922.0
747,864450.0,445615.0,243608.0,-22554.0,-230567.0,140998.0,539036.0,3230643.0,-7686.0,-9890.0,10139.0,-1104.0,2551.0,2075.0,3922.0
748,864089.0,445736.0,243763.0,-22251.0,-230369.0,140636.0,539521.0,3229957.0,-7686.0,-9890.0,10139.0,-1104.0,2551.0,2075.0,3922.0
749,863999.0,446068.0,244200.0,-21794.0,-229849.0,140713.0,540188.0,3229394.0,-7686.0,-9890.0,10139.0,-1104.0,2551.0,2075.0,3922.0
750,864184.0,446618.0,244898.0,-21343.0,-229169.0,141355.0,540947.0,3228831.0,-7686.0,-9890.0,10139.0,-1104.0,2551.0,2075.0,3922.0
751,864366.0,447375.0,246071.0,-20268.0,-228014.0,142178.0,541966.0,3228354.0,-7686.0,-9890.0,10139.0,-1104.0,2551.0,2075.0,3922.0
752,863898.0,447673.0,246430.0,-19706.0,-227509.0,142190.0,542582.0,3227666.0,-7686.0,-9890.0,10139.0,-1104.0,2551.0,2075.0,3922.0
753,863584.0,448577.0,247600.0,-18499.0,-226385.0,142849.0,543566.0,3227133.0,-7799.0,-10063.0,10249.0,-982.0,2156.0,1428.0,3922.0
754,863026.0,449440.0,248406.0,-17656.0,-225525.0,143273.0,544441.0,3226610.0,-7799.0,-10063.0,10249.0,-982.0,2156.0,1428.0,3922.0
755,862533.0,450048.0,248854.0,-17200.0,-224939.0,143668.0,545173.0,3226209.0,-7799.0,-10063.0,10249.0,-982.0,2156.0,1428.0,3922.0
756,862158.0,450058.0,248939.0,-17124.0,-224631.0,143952.0,545642.0,3225824.0,-7799.0,-10063.0,10249.0,-982.0,2156.0,1428.0,3922.0
757,861852.0,449896.0,248976.0,-17092.0,-224387.0,144320.0,546071.0,3225315.0,-7799.0,-10063.0,10249.0,-982.0,2156.0,1428.0,3922.0
758,861777.0,450481.0,249596.0,-16306.0,-223620.0,145174.0,546648.0,3224751.0,-7799.0,-10063.0,10249.0,-982.0,2156.0,1428.0,3922.0
759,861413.0,450710.0,249508.0,-16129.0,-223445.0,145344.0,546903.0,3224095.0,-7799.0,-10063.0,10249.0,-982.0,2156.0,1428.0,3922.0
760,861195.0,451124.0,249911.0,-15643.0,-222972.0,145678.0,547411.0,3223636.0,-7799.0,-10063.0,10249.0,-982.0,2156.0,1428.0,3922.0
761,861201.0,451699.0,250703.0,-14818.0,-222128.0,146355.0,548099.0,3223270.0,-7799.0,-10063.0,10249.0,-982.0,2156.0,1428.0,3922.0
762,861329.0,452416.0,251780.0,-13611.0,-220975.0,147414.0,548860.0,3222969.0,-7799.0,-10063.0,10249.0,-982.0,2156.0,1428.0,3922.0
763,861301.0,452876.0,252296.0,-12889.0,-220245.0,148181.0,549363.0,3222566.0,-7938.0,-10314.0,10213.0,-679.0,1864.0,765.0,3922.0
764,861273.0,453088.0,252329.0,-12654.0,-219953.0,148609.0,549670.0,3222068.0,-7938.0,-10314.0,10213.0,-679.0,1864.0,765.0,3922.0
765,861572.0,453779.0,253070.0,-11636.0,-218986.0,149639.0,550409.0,3221815.0,-7938.0,-10314.0,10213.0,-679.0,1864.0,765.0,3922.0
766,861576.0,454217.0,253096.0,-11227.0,-218619.0,150148.0,550662.0,3221344.0,-7938.0,-10314.0,10213.0,-679.0,1864.0,765.0,3922.0
767,861603.0,454632.0,253016.0,-11027.0,-218449.0,150458.0,550750.0,3220879.0,-7938.0,-10314.0,10213.0,-679.0,1864.0,765.0,3922.0
768,861811.0,455379.0,253580.0,-10221.0,-217660.0,151270.0,551283.0,3220558.0,-7938.0,-10314.0,10213.0,-679.0,1864.0,765.0,3922.0
769,861854.0,455798.0,253774.0,-9811.0,-217204.0,151739.0,551646.0,3220084.0,-7938.0,-10314.0,10213.0,-679.0,1864.0,765.0,3922.0
770,862265.0,456464.0,254338.0,-8952.0,-216429.0,152496.0,552235.0,3219874.0,-7938.0,-10314.0,10213.0,-679.0,1864.0,765.0,3922.0
771,862530.0,457074.0,254618.0,-8226.0,-215811.0,153083.0,552739.0,3219656.0,-7938.0,-10314.0,10213.0,-679.0,1864.0,765.0,3922.0
772,862619.0,457617.0,254832.0,-7701.0,-215325.0,153518.0,553163.0,3219403.0,-7938.0,-10314.0,10213.0,-679.0,1864.0,765.0,3922.0
773,862729.0,458149.0,255022.0,-7271.0,-214888.0,153881.0,553594.0,3219141.0,-7968.0,-10349.0,10028.0,-623.0,1558.0,-36.0,3922.0
774,862845.0,458615.0,255021.0,-6993.0,-214664.0,154128.0,553839.0,3218787.0,-7968.0,-10349.0,10028.0,-623.0,1558.0,-36.0,3922.0
775,863309.0,459541.0,255682.0,-6156.0,-213876.0,154940.0,554498.0,3218648.0,-7968.0,-10349.0,10028.0,-623.0,1558.0,-36.0,3922.0
776,863363.0,459978.0,255492.0,-6029.0,-213786.0,155169.0,554618.0,3218181.0,-7968.0,-10349.0,10028.0,-623.0,1558.0,-36.0,3922.0
777,863541.0,460780.0,256116.0,-5154.0,-212986.0,156013.0,555173.0,3217923.0,-7968.0,-10349.0,10028.0,-623.0,1558.0,-36.0,3922.0
778,863579.0,461136.0,255917.0,-4992.0,-212964.0,156118.0,555263.0,3217460.0,-7968.0,-10349.0,10028.0,-623.0,1558.0,-36.0,3922.0
779,863801.0,461667.0,256368.0,-4349.0,-212487.0,156419.0,555680.0,3217159.0,-7968.0,-10349.0,10028.0,-623.0,1558.0,-36.0,3922.0
780,864238.0,462420.0,257516.0,-3169.0,-211513.0,157086.0,556298.0,3216973.0,-7968.0,-10349.0,10028.0,-623.0,1558.0,-36.0,3922.0
781,864456.0,462778.0,257826.0,-2824.0,-211314.0,157081.0,556238.0,3216501.0,-7968.0,-10349.0,10028.0,-623.0,1558.0,-36.0,3922.0
782,864703.0,463156.0,258057.0,-2519.0,-211066.0,157162.0,556646.0,3216174.0,-7968.0,-10349.0,10028.0,-623.0,1558.0,-36.0,3922.0
783,864998.0,463631.0,258589.0,-1846.0,-210380.0,157659.0,557358.0,3215953.0,-7986.0,-10329.0,9745.0,-1068.0,1164.0,-967.0,3922.0
784,865383.0,464291.0,259589.0,-651.0,-209167.0,158708.0,558166.0,3215826.0,-7986.0,-10329.0,9745.0,-1068.0,1164.0,-967.0,3922.0
785,865737.0,464730.0,260381.0,295.0,-208203.0,159659.0,558719.0,3215623.0,-7986.0,-10329.0,9745.0,-1068.0,1164.0,-967.0,3922.0
786,865836.0,464859.0,260488.0,642.0,-207862.0,160132.0,558882.0,3215282.0,-7986.0,-10329.0,9745.0,-1068.0,1164.0,-967.0,3922.0
787,865946.0,465035.0,260474.0,817.0,-207694.0,160437.0,559285.0,3214944.0,-7986.0,-10329.0,9745.0,-1068.0,1164.0,-967.0,3922.0
788,866181.0,465723.0,261448.0,1947.0,-206626.0,161537.0,560186.0,3214766.0,-7986.0,-10329.0,9745.0,-1068.0,1164.0,-967.0,3922.0
789,866371.0,466309.0,262449.0,3003.0,-205662.0,162449.0,560714.0,3214439.0,-7986.0,-10329.0,9745.0,-1068.0,1164.0,-967.0,3922.0
790,866514.0,466796.0,263202.0,3608.0,-205170.0,162890.0,561028.0,3214046.0,-7986.0,-10329.0,9745.0,-1068.0,1164.0,-967.0,3922.0
791,866601.0,467233.0,263641.0,3991.0,-205006.0,163058.0,561091.0,3213588.0,-7986.0,-10329.0,9745.0,-1068.0,1164.0,-967.0,3922.0
792,867054.0,467920.0,264316.0,4725.0,-204442.0,163660.0,561516.0,3213394.0,-7986.0,-10329.0,9745.0,-1068.0,1164.0,-967.0,3922.0
793,867535.0,468567.0,264809.0,5242.0,-204002.0,164259.0,561956.0,3213219.0,-8154.0,-10436.0,9642.0,-1469.0,370.0,-1343.0,3922.0
794,868141.0,469267.0,265224.0,5716.0,-203636.0,164869.0,562307.0,3213092.0,-8154.0,-10436.0,9642.0,-1469.0,370.0,-1343.0,3922.0
795,868854.0,470048.0,265509.0,6155.0,-203193.0,165628.0,562616.0,3212934.0,-8154.0,-10436.0,9642.0,-1469.0,370.0,-1343.0,3922.0
796,869323.0,470495.0,265316.0,6354.0,-202915.0,166289.0,562719.0,3212654.0,-8154.0,-10436.0,9642.0,-1469.0,370.0,-1343.0,3922.0
797,869866.0,471109.0,265266.0,6674.0,-202452.0,167144.0,563011.0,3212376.0,-8154.0,-10436.0,9642.0,-1469.0,370.0,-1343.0,3922.0
798,870371.0,471925.0,265213.0,6999.0,-202052.0,167634.0,563353.0,3212009.0,-8154.0,-10436.0,9642.0,-1469.0,370.0,-1343.0,3922.0
799,870709.0,472719.0,265204.0,7308.0,-201807.0,167841.0,563494.0,3211583.0,-8154.0,-10436.0,9642.0,-1469.0,370.0,-1343.0,3922.0
800,870918.0,473124.0,264866.0,7129.0,-202041.0,167568.0,563197.0,3210967.0,-8154.0,-10436.0,9642.0,-1469.0,370.0,-1343.0,3922.0
801,871281.0,473731.0,265286.0,7504.0,-201762.0,167673.0,563312.0,3210530.0,-8154.0,-10436.0,9642.0,-1469.0,370.0,-1343.0,3922.0
802,871844.0,474334.0,265724.0,7949.0,-201399.0,167837.0,563525.0,3210226.0,-8154.0,-10436.0,9642.0,-1469.0,370.0,-1343.0,3922.0
803,872517.0,475306.0,266776.0,8911.0,-200536.0,168604.0,564021.0,3210018.0,-8262.0,-10555.0,9535.0,-1770.0,-652.0,-1796.0,3922.0
804,873101.0,476111.0,267419.0,9636.0,-199874.0,169345.0,564381.0,3209621.0,-8262.0,-10555.0,9535.0,-1770.0,-652.0,-1796.0,3922.0
805,873652.0,476891.0,267864.0,10316.0,-199357.0,169957.0,564666.0,3209160.0,-8262.0,-10555.0,9535.0,-1770.0,-652.0,-1796.0,3922.0
806,874171.0,477422.0,267455.0,10212.0,-199587.0,169988.0,564551.0,3208725.0,-8262.0,-10555.0,9535.0,-1770.0,-652.0,-1796.0,3922.0
807,875144.0,478470.0,267808.0,10834.0,-199169.0,170608.0,564794.0,3208673.0,-8262.0,-10555.0,9535.0,-1770.0,-652.0,-1796.0,3922.0
808,875964.0,479171.0,267558.0,11086.0,-199199.0,170841.0,564597.0,3208164.0,-8262.0,-10555.0,9535.0,-1770.0,-652.0,-1796.0,3922.0
809,876960.0,479946.0,267652.0,11600.0,-198959.0,171256.0,564891.0,3207924.0,-8262.0,-10555.0,9535.0,-1770.0,-652.0,-1796.0,3922.0
810,878057.0,480921.0,268199.0,12448.0,-198380.0,171743.0,565388.0,3207788.0,-8262.0,-10555.0,9535.0,-1770.0,-652.0,-1796.0,3922.0
811,878839.0,481546.0,268521.0,13055.0,-197967.0,172110.0,565893.0,3207532.0,-8262.0,-10555.0,9535.0,-1770.0,-652.0,-1796.0,3922.0
812,879468.0,481973.0,268474.0,13384.0,-197834.0,172163.0,566212.0,3207168.0,-8262.0,-10555.0,9535.0,-1770.0,-652.0,-1796.0,3922.0
813,879946.0,482874.0,268641.0,13969.0,-197612.0,172304.0,566504.0,3206718.0,-8123.0,-10659.0,9527.0,-2103.0,-1765.0,-1792.0,3922.0
814,880391.0,484044.0,268900.0,14499.0,-197364.0,172543.0,566842.0,3206206.0,-8123.0,-10659.0,9527.0,-2103.0,-1765.0,-1792.0,3922.0
815,880956.0,484777.0,269786.0,15510.0,-196581.0,173063.0,567434.0,3205610.0,-8123.0,-10659.0,9527.0,-2103.0,-1765.0,-1792.0,3922.0
816,881691.0,485069.0,270453.0,16309.0,-196017.0,173458.0,567936.0,3204796.0,-8123.0,-10659.0,9527.0,-2103.0,-1765.0,-1792.0,3922.0
817,882098.0,485948.0,271109.0,17024.0,-195551.0,173985.0,568351.0,3204141.0,-8123.0,-10659.0,9527.0,-2103.0,-1765.0,-1792.0,3922.0
818,882322.0,487086.0,271783.0,17624.0,-195205.0,174368.0,568706.0,3203348.0,-8123.0,-10659.0,9527.0,-2103.0,-1765.0,-1792.0,3922.0
819,882536.0,487783.0,272654.0,17673.0,-194897.0,174631.0,569133.0,3202628.0,-8123.0,-10659.0,9527.0,-2103.0,-1765.0,-1792.0,3922.0
820,882822.0,488917.0,274164.0,18565.0,-193871.0,175449.0,569878.0,3202052.0,-8123.0,-10659.0,9527.0,-2103.0,-1765.0,-1792.0,3922.0
821,882688.0,489404.0,275259.0,19499.0,-193151.0,175819.0,570659.0,3201419.0,-8123.0,-10659.0,9527.0,-2103.0,-1765.0,-1792.0,3922.0
822,882373.0,489591.0,276064.0,20264.0,-192529.0,176203.0,571333.0,3200729.0,-8123.0,-10659.0,9527.0,-2103.0,-1765.0,-1792.0,3922.0
823,881788.0,489654.0,276555.0,20618.0,-192295.0,176155.0,571878.0,3200029.0,-8075.0,-11216.0,9571.0,-1890.0,-2782.0,-837.0,3922.0
824,881589.0,490371.0,277644.0,21651.0,-191608.0,176394.0,572561.0,3199314.0,-8075.0,-11216.0,9571.0,-1890.0,-2782.0,-837.0,3922.0
825,881659.0,491429.0,279427.0,23244.0,-190388.0,177182.0,573627.0,3198744.0,-8075.0,-11216.0,9571.0,-1890.0,-2782.0,-837.0,3922.0
826,881501.0,491915.0,280440.0,24079.0,-189629.0,177728.0,574189.0,3197962.0,-8075.0,-11216.0,9571.0,-1890.0,-2782.0,-837.0,3922.0
827,881203.0,492581.0,281325.0,24617.0,-188882.0,178185.0,574691.0,3197208.0,-8075.0,-11216.0,9571.0,-1890.0,-2782.0,-837.0,3922.0
828,880709.0,493364.0,281856.0,25175.0,-188389.0,178391.0,575044.0,3196588.0,-8075.0,-11216.0,9571.0,-1890.0,-2782.0,-837.0,3922.0
829,880131.0,494206.0,282476.0,25596.0,-187836.0,178763.0,575596.0,3196004.0,-8075.0,-11216.0,9571.0,-1890.0,-2782.0,-837.0,3922.0
830,879603.0,494931.0,283031.0,26099.0,-187294.0,179084.0,576034.0,3195336.0,-8075.0,-11216.0,9571.0,-1890.0,-2782.0,-837.0,3922.0
831,878896.0,495284.0,283791.0,26990.0,-186495.0,179391.0,576692.0,3194794.0,-8075.0,-11216.0,9571.0,-1890.0,-2782.0,-837.0,3922.0
832,878336.0,495706.0,284586.0,27853.0,-185736.0,179772.0,577147.0,3194216.0,-8075.0,-11216.0,9571.0,-1890.0,-2782.0,-837.0,3922.0
833,877869.0,495969.0,285376.0,28874.0,-184884.0,179988.0,577724.0,3193866.0,-8299.0,-11986.0,9405.0,-749.0,-3383.0,456.0,3922.0
834,877199.0,495812.0,286148.0,29999.0,-184004.0,180331.0,578273.0,3193714.0,-8299.0,-11986.0,9405.0,-749.0,-3383.0,456.0,3922.0
835,876671.0,495906.0,287002.0,31110.0,-183042.0,180964.0,578771.0,3193363.0,-8299.0,-11986.0,9405.0,-749.0,-3383.0,456.0,3922.0
836,876139.0,495889.0,287235.0,31608.0,-182435.0,181501.0,578956.0,3192760.0,-8299.0,-11986.0,9405.0,-749.0,-3383.0,456.0,3922.0
837,875540.0,495578.0,287206.0,31675.0,-181913.0,181992.0,579100.0,3192271.0,-8299.0,-11986.0,9405.0,-749.0,-3383.0,456.0,3922.0
838,875092.0,495662.0,287911.0,32356.0,-180754.0,183120.0,579484.0,3192155.0,-8299.0,-11986.0,9405.0,-749.0,-3383.0,456.0,3922.0
839,874459.0,495546.0,288078.0,32636.0,-180196.0,183330.0,579635.0,3191978.0,-8299.0,-11986.0,9405.0,-749.0,-3383.0,456.0,3922.0
840,873820.0,495819.0,288783.0,33355.0,-179257.0,183869.0,580126.0,3191670.0,-8299.0,-11986.0,9405.0,-749.0,-3383.0,456.0,3922.0
841,873321.0,496489.0,290087.0,34623.0,-177666.0,184924.0,580784.0,3191478.0,-8299.0,-11986.0,9405.0,-749.0,-3383.0,456.0,3922.0
842,872729.0,496863.0,290899.0,35239.0,-176556.0,185563.0,581265.0,3190948.0,-8299.0,-11986.0,9405.0,-749.0,-3383.0,456.0,3922.0
843,872074.0,497074.0,291814.0,35839.0,-175299.0,186253.0,581760.0,3190434.0,-8794.0,-12176.0,9287.0,506.0,-3642.0,2026.0,3922.0
844,871415.0,497227.0,292578.0,36528.0,-174004.0,187047.0,582276.0,3189928.0,-8794.0,-12176.0,9287.0,506.0,-3642.0,2026.0,3922.0
845,870862.0,497470.0,293042.0,37096.0,-172994.0,187896.0,582657.0,3189387.0,-8794.0,-12176.0,9287.0,506.0,-3642.0,2026.0,3922.0
846,870406.0,497747.0,293028.0,37175.0,-172513.0,188180.0,582704.0,3188807.0,-8794.0,-12176.0,9287.0,506.0,-3642.0,2026.0,3922.0
847,869768.0,497753.0,292954.0,37143.0,-172154.0,188286.0,582884.0,3188281.0,-8794.0,-12176.0,9287.0,506.0,-3642.0,2026.0,3922.0
848,869171.0,497809.0,293448.0,37699.0,-171239.0,188968.0,583126.0,3187616.0,-8794.0,-12176.0,9287.0,506.0,-3642.0,2026.0,3922.0
849,868587.0,498251.0,294429.0,38783.0,-169931.0,189868.0,583688.0,3186923.0,-8794.0,-12176.0,9287.0,506.0,-3642.0,2026.0,3922.0
850,868000.0,498825.0,295391.0,39961.0,-168509.0,190743.0,584554.0,3186360.0,-8794.0,-12176.0,9287.0,506.0,-3642.0,2026.0,3922.0
851,867164.0,499093.0,295839.0,40570.0,-167634.0,191140.0,585094.0,3185542.0,-8794.0,-12176.0,9287.0,506.0,-3642.0,2026.0,3922.0
852,866469.0,499900.0,296977.0,41839.0,-166292.0,191688.0,585991.0,3184859.0,-8794.0,-12176.0,9287.0,506.0,-3642.0,2026.0,3922.0
853,865898.0,500831.0,297679.0,42809.0,-165168.0,192096.0,586578.0,3184054.0,-9521.0,-12017.0,9378.0,997.0,-4223.0,3207.0,3922.0
854,865110.0,501676.0,297962.0,43355.0,-164487.0,192416.0,586729.0,3183038.0,-9521.0,-12017.0,9378.0,997.0,-4223.0,3207.0,3922.0
855,864628.0,502651.0,298962.0,44584.0,-163087.0,193546.0,587620.0,3182410.0,-9521.0,-12017.0,9378.0,997.0,-4223.0,3207.0,3922.0
856,863778.0,503159.0,299510.0,45457.0,-162084.0,194064.0,588347.0,3181568.0,-9521.0,-12017.0,9378.0,997.0,-4223.0,3207.0,3922.0
857,862756.0,503852.0,300328.0,46486.0,-161058.0,194291.0,589132.0,3180719.0,-9521.0,-12017.0,9378.0,997.0,-4223.0,3207.0,3922.0
858,861373.0,504274.0,300934.0,47286.0,-160210.0,194151.0,589944.0,3179846.0,-9521.0,-12017.0,9378.0,997.0,-4223.0,3207.0,3922.0
859,859912.0,504614.0,301399.0,47838.0,-159567.0,193695.0,590632.0,3178793.0,-9521.0,-12017.0,9378.0,997.0,-4223.0,3207.0,3922.0
860,858894.0,505208.0,302477.0,48871.0,-158461.0,193606.0,591593.0,3178151.0,-9521.0,-12017.0,9378.0,997.0,-4223.0,3207.0,3922.0
861,857700.0,505378.0,302942.0,49379.0,-157936.0,193066.0,592488.0,3177505.0,-9521.0,-12017.0,9378.0,997.0,-4223.0,3207.0,3922.0
862,856820.0,505834.0,303469.0,49991.0,-157366.0,192524.0,593604.0,3176793.0,-9521.0,-12017.0,9378.0,997.0,-4223.0,3207.0,3922.0
863,856254.0,506604.0,304265.0,50853.0,-156563.0,192448.0,594519.0,3176008.0,-10725.0,-12011.0,9550.0,1089.0,-5076.0,4524.0,3922.0
864,855576.0,507443.0,305193.0,52023.0,-155746.0,192337.0,595139.0,3175144.0,-10725.0,-12011.0,9550.0,1089.0,-5076.0,4524.0,3922.0
865,855031.0,508564.0,306573.0,53534.0,-154432.0,192793.0,596131.0,3174359.0,-10725.0,-12011.0,9550.0,1089.0,-5076.0,4524.0,3922.0
866,854268.0,509276.0,307224.0,54422.0,-153713.0,192653.0,596853.0,3173415.0,-10725.0,-12011.0,9550.0,1089.0,-5076.0,4524.0,3922.0
867,853398.0,509615.0,307578.0,55140.0,-153269.0,192265.0,597389.0,3172430.0,-10725.0,-12011.0,9550.0,1089.0,-5076.0,4524.0,3922.0
868,852622.0,509842.0,308094.0,56103.0,-152752.0,192023.0,598281.0,3171717.0,-10725.0,-12011.0,9550.0,1089.0,-5076.0,4524.0,3922.0
869,851967.0,510308.0,309054.0,57294.0,-151961.0,192057.0,599354.0,3171228.0,-10725.0,-12011.0,9550.0,1089.0,-5076.0,4524.0,3922.0
870,850854.0,510528.0,309547.0,57864.0,-151566.0,191753.0,600048.0,3170359.0,-10725.0,-12011.0,9550.0,1089.0,-5076.0,4524.0,3922.0
871,849892.0,510875.0,310874.0,59159.0,-150461.0,192102.0,601299.0,3169683.0,-10725.0,-12011.0,9550.0,1089.0,-5076.0,4524.0,3922.0
872,848478.0,510662.0,311587.0,60079.0,-149877.0,192067.0,602059.0,3168816.0,-10725.0,-12011.0,9550.0,1089.0,-5076.0,4524.0,3922.0
873,847253.0,510586.0,312426.0,61608.0,-148873.0,192473.0,602904.0,3168010.0,-12564.0,-12281.0,9724.0,1434.0,-6213.0,4928.0,3922.0
874,846221.0,510919.0,313592.0,63399.0,-147460.0,193604.0,604068.0,3167369.0,-12564.0,-12281.0,9724.0,1434.0,-6213.0,4928.0,3922.0
875,845054.0,511269.0,314336.0,64749.0,-146430.0,194361.0,605019.0,3166733.0,-12564.0,-12281.0,9724.0,1434.0,-6213.0,4928.0,3922.0
876,843678.0,510845.0,314111.0,65146.0,-146226.0,194385.0,605363.0,3166004.0,-12564.0,-12281.0,9724.0,1434.0,-6213.0,4928.0,3922.0
877,842578.0,510329.0,314564.0,65987.0,-145474.0,194921.0,606202.0,3165456.0,-12564.0,-12281.0,9724.0,1434.0,-6213.0,4928.0,3922.0
878,841518.0,510231.0,315777.0,67246.0,-143978.0,196381.0,607308.0,3164718.0,-12564.0,-12281.0,9724.0,1434.0,-6213.0,4928.0,3922.0
879,840406.0,510201.0,316863.0,68438.0,-142675.0,197356.0,608111.0,3163734.0,-12564.0,-12281.0,9724.0,1434.0,-6213.0,4928.0,3922.0
880,839491.0,510266.0,317474.0,69221.0,-141873.0,197819.0,608758.0,3162897.0,-12564.0,-12281.0,9724.0,1434.0,-6213.0,4928.0,3922.0
881,838626.0,510146.0,317971.0,69998.0,-141072.0,198214.0,609503.0,3162144.0,-12564.0,-12281.0,9724.0,1434.0,-6213.0,4928.0,3922.0
882,837778.0,509784.0,317994.0,70252.0,-140677.0,198395.0,610168.0,3161448.0,-12564.0,-12281.0,9724.0,1434.0,-6213.0,4928.0,3922.0
883,837525.0,510005.0,318804.0,71140.0,-139606.0,199293.0,611168.0,3161143.0,-13880.0,-12543.0,10064.0,2879.0,-7173.0,4768.0,3922.0
884,837269.0,510148.0,319338.0,71814.0,-138579.0,200218.0,611866.0,3160631.0,-13880.0,-12543.0,10064.0,2879.0,-7173.0,4768.0,3922.0
885,836887.0,510224.0,319681.0,72338.0,-137674.0,201056.0,612660.0,3160008.0,-13880.0,-12543.0,10064.0,2879.0,-7173.0,4768.0,3922.0
886,836503.0,510117.0,319136.0,72026.0,-137548.0,201401.0,612761.0,3159211.0,-13880.0,-12543.0,10064.0,2879.0,-7173.0,4768.0,3922.0
887,836514.0,510600.0,319631.0,72578.0,-136593.0,202506.0,613243.0,3158776.0,-13880.0,-12543.0,10064.0,2879.0,-7173.0,4768.0,3922.0
888,836524.0,510703.0,319598.0,72572.0,-136116.0,203044.0,613594.0,3158094.0,-13880.0,-12543.0,10064.0,2879.0,-7173.0,4768.0,3922.0
889,836809.0,511178.0,320357.0,73294.0,-134940.0,204166.0,614258.0,3157736.0,-13880.0,-12543.0,10064.0,2879.0,-7173.0,4768.0,3922.0
890,836754.0,511625.0,321151.0,74054.0,-133757.0,205369.0,614822.0,3157155.0,-13880.0,-12543.0,10064.0,2879.0,-7173.0,4768.0,3922.0
891,836504.0,511868.0,321376.0,74332.0,-132999.0,206344.0,615383.0,3156465.0,-13880.0,-12543.0,10064.0,2879.0,-7173.0,4768.0,3922.0
892,836149.0,511957.0,321130.0,74248.0,-132696.0,206728.0,615659.0,3155654.0,-13880.0,-12543.0,10064.0,2879.0,-7173.0,4768.0,3922.0
893,836022.0,512348.0,321290.0,74597.0,-131904.0,207659.0,616171.0,3155018.0,-14102.0,-12665.0,10415.0,4134.0,-8136.0,4783.0,3922.0
894,836057.0,513101.0,322055.0,75512.0,-130678.0,208983.0,616972.0,3154590.0,-14102.0,-12665.0,10415.0,4134.0,-8136.0,4783.0,3922.0
895,836005.0,513769.0,322513.0,76239.0,-129696.0,210063.0,617637.0,3154119.0,-14102.0,-12665.0,10415.0,4134.0,-8136.0,4783.0,3922.0
896,835734.0,513983.0,322284.0,76412.0,-129265.0,210869.0,617860.0,3153507.0,-14102.0,-12665.0,10415.0,4134.0,-8136.0,4783.0,3922.0
897,835218.0,513998.0,321755.0,76264.0,-129206.0,211480.0,617896.0,3152902.0,-14102.0,-12665.0,10415.0,4134.0,-8136.0,4783.0,3922.0
898,834925.0,514413.0,321926.0,76714.0,-128767.0,212253.0,618325.0,3152476.0,-14102.0,-12665.0,10415.0,4134.0,-8136.0,4783.0,3922.0
899,834902.0,515081.0,322675.0,77554.0,-127780.0,213425.0,618840.0,3152270.0,-14102.0,-12665.0,10415.0,4134.0,-8136.0,4783.0,3922.0
900,834778.0,515283.0,322919.0,77979.0,-127231.0,214178.0,619157.0,3151988.0,-14102.0,-12665.0,10415.0,4134.0,-8136.0,4783.0,3922.0
901,834665.0,515585.0,323231.0,78404.0,-126621.0,215033.0,619517.0,3151663.0,-14102.0,-12665.0,10415.0,4134.0,-8136.0,4783.0,3922.0
902,834483.0,515800.0,323405.0,78756.0,-126080.0,215833.0,619868.0,3151306.0,-14102.0,-12665.0,10415.0,4134.0,-8136.0,4783.0,3922.0
903,834198.0,515851.0,323353.0,78945.0,-125801.0,216180.0,619894.0,3150828.0,-13387.0,-12508.0,10584.0,5410.0,-8447.0,4754.0,3922.0
904,834416.0,516276.0,323960.0,79786.0,-124907.0,217289.0,620170.0,3150529.0,-13387.0,-12508.0,10584.0,5410.0,-8447.0,4754.0,3922.0
905,834639.0,516544.0,324294.0,80379.0,-124251.0,218411.0,620303.0,3150343.0,-13387.0,-12508.0,10584.0,5410.0,-8447.0,4754.0,3922.0
906,834308.0,516295.0,323818.0,80289.0,-124236.0,218861.0,619976.0,3149752.0,-13387.0,-12508.0,10584.0,5410.0,-8447.0,4754.0,3922.0
907,834202.0,516532.0,323910.0,80699.0,-123775.0,219654.0,620262.0,3149221.0,-13387.0,-12508.0,10584.0,5410.0,-8447.0,4754.0,3922.0
908,834488.0,517291.0,324252.0,81269.0,-123194.0,220533.0,620693.0,3149015.0,-13387.0,-12508.0,10584.0,5410.0,-8447.0,4754.0,3922.0
909,834721.0,517481.0,323719.0,81099.0,-123296.0,220858.0,620781.0,3148963.0,-13387.0,-12508.0,10584.0,5410.0,-8447.0,4754.0,3922.0
910,835239.0,517588.0,323370.0,81064.0,-123255.0,221454.0,621013.0,3149058.0,-13387.0,-12508.0,10584.0,5410.0,-8447.0,4754.0,3922.0
911,835973.0,518119.0,323563.0,81380.0,-122872.0,222237.0,621330.0,3149091.0,-13387.0,-12508.0,10584.0,5410.0,-8447.0,4754.0,3922.0
912,836789.0,518873.0,324233.0,82138.0,-121963.0,223219.0,621721.0,3149241.0,-13387.0,-12508.0,10584.0,5410.0,-8447.0,4754.0,3922.0
913,837382.0,518954.0,323969.0,81960.0,-121731.0,223391.0,621661.0,3149288.0,-12163.0,-11863.0,10762.0,6777.0,-8214.0,4385.0,3922.0
914,838367.0,519361.0,323802.0,82256.0,-121404.0,223939.0,621518.0,3149162.0,-12163.0,-11863.0,10762.0,6777.0,-8214.0,4385.0,3922.0
